Subject,Task,SequenceOrder,ListNo,RunNo,TrialNo,Aud_Probe_Dist,Aud_Standard_Vel,Aud_Probe_Vel,Main_Control,Aud_Std_StartCode,Aud_Probe_StartCode,Aud_Std_StartPt,Aud_Std_EndPt,Aud_Probe_StartPt,Aud_Probe_EndPt,RespIndex,RespMiddle,RespRing,ISI_Cross_Std,ISI_Cross_Probe,ISI_Std_Probe,ISI_Probe_Response,ITI,TrialOnset,StdOnset,StdOnsetByStop,StdOffset,StdDur,ProbeOnset,ProbeOnsetByStop,ProbeOffset,ProbeDur,RespWinStart,RespTime,RT,CorrectKC,CorrectResponse,CorrectFinger,SubjRespKC,SubjResponse,SubjRespFinger
215,Spatial,2314,3,2,1,800,1.25,3.33333333333333,1,m,m,-800,-400,-800,0,L,S,=,0.424726695974974,0.294571470074705,1.02780903075963,1.67598386820442,1.25125193594263,23554.3349995798,23554.7709045466,23554.7709045466,23557.9711440767,3.2,23559.0314488324,23559.0314488324,23561.4313132806,2.4,23563.2517425495,23564.8584396311,1.60669708165733,66,Longer,Index,78,S,Middle
215,Spatial,2314,3,2,2,400,5,5,2,r,r,0,400,0,400,=,L,S,0.263861159677067,0.278186860199738,1.00423112096258,1.96669861804177,1.38383670173757,23566.2684312069,23566.551395669,23566.551395669,23567.3514495831,0.8,23568.3914626397,23568.3914626397,23569.1913333757,0.8,23571.3018289573,23571.770530857,0.468701899724692,66,Equals to,Index,66,=,Index
215,Spatial,2314,3,2,3,1200,3.33333333333333,7.5,1,l,l,-1600,-800,-1600,-400,S,=,L,0.359403477712507,0.396604502099754,1.49823111606715,1.91842384155778,1.16748860528431,23573.3018209372,23573.6713792055,23573.6713792055,23576.0714775185,2.4,23577.6015056079,23577.6015056079,23579.201460779,1.6,23581.2684966505,23582.2745835507,1.00608690017179,77,Longer,Ring,66,S,Index
215,Spatial,2314,3,2,4,800,2.5,3.33333333333333,1,l,l,-1600,-1200,-1600,-800,=,L,S,0.45524708844719,0.204806790141932,1.91667501144882,1.96575715908738,1.09015596243589,23583.60192045,23584.0718419947,23584.0718419947,23585.6716495968,1.6,23587.62177453,23587.62177453,23590.0216614344,2.4,23592.1352915739,23593.1464590178,1.01116744396859,78,Longer,Middle,78,L,Middle
215,Spatial,2314,3,2,5,1200,5,5,1,r,r,0,1600,0,1200,=,L,S,0.429975032934142,0.323989827014126,1.5389055889034,1.89049389095248,1.0146086259455,23594.4019481032,23594.8519179991,23594.8519179991,23598.0517966268,3.2,23599.6219557832,23599.6219557832,23602.0218625773,2.4,23604.0520010676,23605.2105129434,1.15851187577573,77,Shorter,Ring,66,=,Index
215,Spatial,2314,3,2,6,800,3.75,3.33333333333333,1,r,r,0,1200,0,800,L,S,=,0.44578571578305,0.250079791661056,1.02346419775269,1.35227295136885,1.00356513104297,23606.385365198,23606.842117814,23606.842117814,23610.042042958,3.2,23611.0923826361,23611.0923826361,23613.4922198162,2.4,23614.9853823288,23615.4185784871,0.433196158330247,78,Shorter,Middle,77,=,Ring
215,Spatial,2314,3,2,7,400,5,5,2,r,r,0,800,0,400,=,L,S,0.393855564845643,0.466869326489119,1.97989881021396,1.41410724926822,1.46986758572314,23616.5687546396,23616.9823025832,23616.9823025832,23618.5822125212,1.6,23620.5922478992,23620.5922478992,23621.3922806403,0.8,23622.9521199569,23624.6905176656,1.73839770870109,77,Shorter,Ring,77,S,Ring
215,Spatial,2314,3,2,8,400,5,5,2,m,m,-800,-400,-800,-400,=,L,S,0.359913241571473,0.394050808055434,1.10272233213671,1.31352935507955,1.32790416098108,23626.3021847269,23626.6724433062,23626.6724433062,23627.4724256814,0.8,23628.6024170069,23628.6024170069,23629.4021591012,0.8,23630.8688403579,23631.2505432785,0.381702920516545,66,Equals to,Index,66,=,Index
215,Spatial,2314,3,2,9,1600,5,5,2,r,r,0,1200,0,1600,S,=,L,0.394800552924737,0.46668024578759,1.30890014872161,1.00994570771696,1.6836288951144,23632.7355268502,23633.1426571465,23633.1426571465,23635.5425385973,2.4,23636.872728756,23636.872728756,23640.0726163662,3.2,23641.2355608552,23641.5945468124,0.358985957205732,77,Longer,Ring,78,=,Middle
215,Spatial,2314,3,2,10,800,7.5,3.33333333333333,1,l,l,-1600,-400,-1600,-800,=,L,S,0.215446243949571,0.446694477286043,1.48014756638618,1.69675458055657,1.10354323743692,23643.4356458036,23643.6627204344,23643.6627204344,23645.2625671744,1.6,23646.78263564,23646.78263564,23649.1825966497,2.4,23651.0356209094,23651.6265493942,0.590928484860342,77,Shorter,Ring,66,=,Index
215,Spatial,2314,3,2,11,1600,7.5,20,2,l,l,-1600,-400,-1600,0,S,=,L,0.310330395220441,0.413852026787595,1.01963945537008,1.85659291305454,1.47772902449291,23652.8857116158,23653.2129747343,23653.2129747343,23654.8127736747,1.6,23655.8727816884,23655.8727816884,23656.6726748805,0.8,23658.6690046728,23659.578617702,0.909613029187312,77,Longer,Ring,77,L,Ring
215,Spatial,2314,3,2,12,800,5,5,1,m,m,-800,-400,-800,0,S,=,L,0.203544369378337,0.488160507459305,1.74812580988808,1.19299760485414,1.34543359123221,23661.2024411917,23661.4228348453,23661.4228348453,23662.2226799171,0.8,23664.0031126984,23664.0031126984,23665.6029979347,1.6,23666.9357240793,23667.8825848057,0.946860726307932,77,Longer,Ring,77,L,Ring
215,Spatial,2314,3,2,13,800,1.25,3.33333333333333,1,l,l,-1600,-1200,-1600,-800,L,S,=,0.382187566173658,0.497095661110715,1.7640692745051,1.47189280274185,1.3838546072782,23669.3857745415,23669.7831287129,23669.7831287129,23672.9831263582,3.2,23674.7829352692,23674.7829352692,23677.1828972413,2.4,23678.8025141907,23679.3466312244,0.544117033761722,66,Longer,Index,78,S,Middle
215,Spatial,2314,3,2,14,800,2.5,3.33333333333333,1,l,l,-1600,-1200,-1600,-800,S,=,L,0.391273424222065,0.252552376018688,1.06558655426752,1.00770397641852,1.83630512357319,23680.9025114318,23681.3134531786,23681.3134531786,23682.9129662843,1.6,23684.0133132447,23684.0133132447,23686.4131170613,2.4,23687.5691883641,23689.8825264197,2.31333805554095,77,Longer,Ring,77,L,Ring
215,Spatial,2314,3,2,15,800,3.75,3.33333333333333,1,l,l,-1600,-400,-1600,-800,=,L,S,0.479421945427402,0.482592151817328,1.9685589923466,1.8333414037105,1.71570831865639,23691.8692965386,23692.3632715083,23692.3632715083,23695.5632550384,3.2,23697.573526206,23697.573526206,23699.9734647596,2.4,23701.9526236163,23702.6665386666,0.713915050306241,77,Shorter,Ring,77,S,Ring
215,Spatial,2314,3,2,16,400,5,5,2,m,m,-800,0,-800,-400,L,S,=,0.415906452762114,0.481042819570294,1.78276366822313,1.25325533220475,1.21400550989707,23704.5360052304,23704.9633980327,23704.9633980327,23706.5633968329,1.6,23708.3837082099,23708.3837082099,23709.1835542441,0.8,23710.5860176454,23711.9466088966,1.36059125121392,78,Shorter,Middle,78,S,Middle
215,Spatial,2314,3,2,17,1200,3.33333333333333,7.5,1,l,l,-1600,-800,-1600,-400,=,L,S,0.424111937861222,0.242921632900492,1.99609052108174,1.73980245519117,1.99716679932993,23713.3194095572,23713.7638411247,23713.7638411247,23716.1634579136,2.4,23718.1936040583,23718.1936040583,23719.7935518509,1.6,23721.6694836707,23722.2586063199,0.589122649234923,78,Longer,Middle,77,S,Ring
215,Spatial,2314,3,2,18,800,7.5,3.33333333333333,1,m,m,-800,400,-800,0,S,=,L,0.268589900444908,0.382519286719872,1.11317530721987,1.01133534178529,1.19238075802249,23724.4194651843,23724.7039460783,23724.7039460783,23726.3038916253,1.6,23727.4438191561,23727.4438191561,23729.8438375894,2.4,23731.0028076605,23731.3545986669,0.351791006378335,66,Shorter,Index,78,=,Middle
215,Spatial,2314,3,2,19,1600,6.66666666666667,5,2,m,m,-800,800,-800,800,L,S,=,0.204480316608262,0.291072111290419,1.15011760413617,1.15902189438545,1.95754883276803,23732.7028999874,23732.9238867556,23732.9238867556,23735.3238715046,2.4,23736.5041700624,23736.5041700624,23739.704034254,3.2,23741.0029475409,23741.4026436023,0.39969606136583,77,Equals to,Ring,77,=,Ring
215,Spatial,2314,3,2,20,800,15,5,1,m,m,-800,400,-800,0,S,=,L,0.381874611056937,0.42336502424728,1.43242352506243,1.48664597051837,1.33033661687832,23743.5029629287,23743.9041186057,23743.9041186057,23744.7039620735,0.8,23746.1643289364,23746.1643289364,23747.7641750348,1.6,23749.4029352114,23749.9146570015,0.511721790102456,66,Shorter,Index,66,S,Index
215,Spatial,2314,3,2,21,400,1.66666666666667,1.25,2,l,l,-1600,-1200,-1600,-1200,S,=,L,0.282514636452773,0.328795309264761,1.32535217244983,1.26949646901235,1.88255040776846,23751.4029781989,23751.7044083542,23751.7044083542,23754.1042894842,2.4,23755.4643681384,23755.4643681384,23758.6642968113,3.2,23760.0862142971,23760.4746624038,0.388448106721626,78,Equals to,Middle,78,=,Middle
215,Spatial,2314,3,2,22,1600,15,20,2,m,m,-800,400,-800,800,=,L,S,0.319730928946127,0.250374919256755,1.23266773487409,1.78757655058446,1.23604082118351,23762.4864220486,23762.8243780961,23762.8243780961,23763.6243614337,0.8,23764.8843950473,23764.8843950473,23765.6843703648,0.8,23767.6193031151,23768.0346479164,0.41534480136761,78,Longer,Middle,66,=,Index
215,Spatial,2314,3,2,23,800,1.66666666666667,5,1,r,r,0,400,0,800,L,S,=,0.389594283504831,0.491626496772384,1.11427442345149,1.25775809866699,1.49160198258554,23769.4197936857,23769.824746377,23769.824746377,23772.2242897023,2.4,23773.3646910579,23773.3646910579,23774.9645727653,1.6,23776.3698428754,23776.7385991725,0.368756297102664,66,Longer,Index,77,=,Ring
215,Spatial,2314,3,2,24,400,10,5,2,r,r,0,800,0,400,=,L,S,0.304962546922924,0.205734456143109,1.77290453077476,1.0095151152479,1.78343587442008,23778.3698467143,23778.6946797079,23778.6946797079,23779.4945013612,0.8,23781.294710954,23781.294710954,23782.094584898,0.8,23783.2364892567,23784.2904504255,1.05396116882548,77,Shorter,Ring,66,=,Index
215,Spatial,2314,3,2,25,1600,3.75,5,2,r,r,0,1200,0,1600,S,=,L,0.349926887797297,0.433597112058272,1.20982429993065,1.53153319245112,1.09531452085972,23786.8698913058,23787.2348903338,23787.2348903338,23790.4348039289,3.2,23791.6750154979,23791.6750154979,23794.8749371131,3.2,23796.5532416096,23796.9466281447,0.393386535160971,77,Longer,Ring,78,=,Middle
215,Spatial,2314,3,2,26,800,5,5,1,r,r,0,400,0,800,=,L,S,0.297912283465763,0.220802541957947,1.65413327524302,1.36233961883076,1.0755462760443,23798.1866564908,23798.4951600129,23798.4951600129,23799.2947317613,0.8,23800.9750710609,23800.9750710609,23802.5749312746,1.6,23804.0866223575,23804.5306163957,0.443994038210803,78,Longer,Middle,66,=,Index
215,Spatial,2314,3,2,27,400,1.25,1.25,2,r,r,0,400,0,400,S,=,L,0.473921437446118,0.211106034803842,1.08649232855553,1.73055883665272,1.16973966889073,23805.7699964006,23806.2551496318,23806.2551496318,23809.4550699637,3.2,23810.5751385577,23810.5751385577,23813.7750117317,3.2,23815.6534277168,23816.5625907469,0.909163030159107,78,Equals to,Middle,66,S,Index
215,Spatial,2314,3,2,28,800,2.5,3.33333333333333,1,l,l,-1600,-1200,-1600,-800,=,L,S,0.259667760626229,0.474594278763237,1.36014875210498,1.76623067529376,1.63317503107636,23817.8867536297,23818.1651777789,23818.1651777789,23819.7650181029,1.6,23821.1651466611,23821.1651466611,23823.5650759114,2.4,23825.4867643445,23826.5304543906,1.04369004608816,78,Longer,Middle,78,L,Middle
215,Spatial,2314,3,2,29,400,1.66666666666667,1.25,2,l,l,-1600,-1200,-1600,-1200,=,L,S,0.483320958735345,0.228638032675251,1.06046133243337,1.28742955579074,1.02651096929795,23828.3201887857,23828.8154229039,23828.8154229039,23831.2152292869,2.4,23832.3156830744,23832.3156830744,23835.5154936921,3.2,23836.9535699933,23837.8186274415,0.865057448205334,66,Equals to,Index,78,L,Middle
215,Spatial,2314,3,2,30,800,2.5,3.33333333333333,1,m,m,-800,-400,-800,0,S,=,L,0.227961351292375,0.307280960503608,1.86130027344865,1.546916891948,1.0413601563022,23838.986932027,23839.2254609959,23839.2254609959,23840.8253754251,1.6,23842.7156515075,23842.7156515075,23845.1155400159,2.4,23846.8202526253,23847.2186346917,0.398382066388876,77,Longer,Ring,77,L,Ring
215,Spatial,2314,3,2,31,1600,6.66666666666667,5,2,m,m,-800,800,-800,800,=,L,S,0.47169505383935,0.344670210571669,1.69954791755897,1.20010832787076,1.10661741157239,23848.4203008739,23848.9056491528,23848.9056491528,23851.3055261123,2.4,23853.0359429498,23853.0359429498,23856.2358504497,3.2,23857.5870338602,23858.1546426809,0.567608820685564,66,Equals to,Index,66,=,Index
215,Spatial,2314,3,2,32,1200,20,7.5,1,r,r,0,1600,0,1200,L,S,=,0.306172712997755,0.36963585343127,1.94133061076602,1.25904923047468,1.56450347765068,23859.403727272,23859.7258773971,23859.7258773971,23860.5257215065,0.8,23862.4958359431,23862.4958359431,23864.0957179713,1.6,23865.4870546705,23866.0186921794,0.531637508956919,78,Shorter,Middle,77,=,Ring
215,Spatial,2314,3,2,33,800,1.25,3.33333333333333,1,m,m,-800,-400,-800,0,=,L,S,0.244320819319383,0.457602516453041,1.86016237087169,1.30103025513602,1.10650279657799,23867.7370686254,23867.9961362139,23867.9961362139,23871.1960292777,3.2,23873.0761131546,23873.0761131546,23875.4759930014,2.4,23876.9204362524,23877.7946785979,0.874242345500534,78,Longer,Middle,66,=,Index
215,Spatial,2314,3,2,34,1600,5,5,2,m,m,-800,800,-800,800,L,S,=,0.46456395186727,0.358537647172079,1.46728390566824,1.92063202720515,1.91014650281064,23879.0704786304,23879.5462801578,23879.5462801578,23882.7462011314,3.2,23884.2363089209,23884.2363089209,23887.4361083105,3.2,23889.5038550796,23889.9146361494,0.410781069847872,77,Equals to,Ring,77,=,Ring
215,Spatial,2314,3,2,35,400,2.5,1.25,2,m,m,-800,0,-800,-400,S,=,L,0.428162600218082,0.429237830183257,1.88751599293525,1.71035371641236,1.75393933825476,23891.9872397733,23892.4266049122,23892.4266049122,23895.6261261664,3.2,23897.5363888648,23897.5363888648,23900.7363037432,3.2,23902.6039978784,23902.9626002427,0.358602364223771,66,Shorter,Index,66,S,Index
215,Spatial,2314,3,2,36,800,1.25,3.33333333333333,1,m,m,-800,-400,-800,0,S,=,L,0.31952098280851,0.273537412538214,1.29935523942917,1.34511893485421,1.41863121085699,23904.870661231,23905.2066071322,23905.2066071322,23908.4065377299,3.2,23909.7365710163,23909.7365710163,23912.1365554446,2.4,23913.6373421413,23914.3069656414,0.669623500169109,77,Longer,Ring,78,=,Middle
215,Spatial,2314,3,2,37,1200,10,7.5,1,l,l,-1600,-800,-1600,-400,L,S,=,0.275774395922671,0.249926494015547,1.72095783607524,1.02201503796993,1.50571370254487,23915.870721221,23916.1568298651,23916.1568298651,23916.9567512879,0.8,23918.7068272025,23918.7068272025,23920.3067737119,1.6,23921.4707958832,23922.1386458813,0.667849998095335,66,Longer,Index,66,L,Index
215,Spatial,2314,3,2,38,1200,20,7.5,1,r,r,0,1600,0,1200,S,=,L,0.491246317546028,0.354962316204412,1.62181279010872,1.21393343798504,1.34595784803593,23923.7874733814,23924.2970986845,23924.2970986845,23925.0966056308,0.8,23926.7369649613,23926.7369649613,23928.3368524432,1.6,23929.7041164691,23930.0747087277,0.37059225853227,66,Shorter,Index,78,=,Middle
215,Spatial,2314,3,2,39,800,7.5,3.33333333333333,1,m,m,-800,400,-800,0,=,L,S,0.353722050797218,0.339304863641987,1.12385824842371,1.59892056553358,1.05123325925603,23931.5708263799,23931.9371297895,23931.9371297895,23933.536998344,1.6,23934.6970892529,23934.6970892529,23937.0969488892,2.4,23938.8375676117,23939.3387128647,0.501145253041614,77,Shorter,Ring,77,S,Ring
215,Spatial,2314,3,2,40,1200,10,5,1,l,l,-1600,0,-1600,-400,=,L,S,0.413372241828548,0.248229710807593,1.19580881520664,1.86479976337888,1.40009743292828,23940.5375941635,23940.9671337739,23940.9671337739,23942.5669291855,1.6,23943.7972039076,23943.7972039076,23946.1970410877,2.4,23948.2042348451,23948.586674969,0.382440123878041,77,Shorter,Ring,78,L,Middle
215,Spatial,2314,3,2,41,1200,6.66666666666667,7.5,1,r,r,0,1600,0,1200,=,L,S,0.206019153279157,0.22336758704469,1.88104890989914,1.49757253258705,1.39680166027908,23950.137626372,23950.3574056409,23950.3574056409,23952.7573117934,2.4,23954.6674256397,23954.6674256397,23956.267242545,1.6,23957.9210294559,23959.3387042031,1.4176747471829,77,Shorter,Ring,77,S,Ring
215,Spatial,2314,3,2,42,1200,3.33333333333333,7.5,1,m,m,-800,0,-800,400,L,S,=,0.299977873132234,0.239012144774763,1.59925604837314,1.22946394696422,1.53247254863255,23960.8877177183,23961.2075509322,23961.2075509322,23963.6074651047,2.4,23965.2376412123,23965.2376412123,23966.8371831902,1.6,23968.2210503319,23969.3787313301,1.1576809981816,66,Longer,Index,77,=,Ring
215,Spatial,2314,3,2,43,1600,7.5,20,2,l,l,-1600,-400,-1600,0,S,=,L,0.376215992388404,0.405235968072658,1.35277059177619,1.79526586399395,1.11064174686575,23971.0710910417,23971.4674654833,23971.4674654833,23973.0675059878,1.6,23974.4576954535,23974.4576954535,23975.2575770968,0.8,23977.2044478578,23977.6346518944,0.430204036587384,77,Longer,Ring,78,=,Middle
215,Spatial,2314,3,2,44,1200,6.66666666666667,7.5,1,l,l,-1600,0,-1600,-400,L,S,=,0.394595854945616,0.29015592128969,1.14799349896576,1.53985120957065,1.861059683009,23978.8878446779,23979.2976658627,23979.2976658627,23981.6973766468,2.4,23982.8879136054,23982.8879136054,23984.4874466009,1.6,23986.171204734,23986.8665844772,0.69537974314153,78,Shorter,Middle,78,S,Middle
215,Spatial,2314,3,2,45,1600,5,5,2,r,r,0,1200,0,1600,S,=,L,0.201384548742362,0.467667879132411,1.16690632525692,1.24798030211399,1.48222900833165,23988.8878680964,23989.1078687188,23989.1078687188,23991.507757548,2.4,23992.7080212281,23992.7080212281,23995.9076371189,3.2,23997.3046201705,23997.7307542765,0.426134105993697,77,Longer,Ring,78,=,Middle
215,Spatial,2314,3,2,46,1200,20,7.5,1,m,m,-800,800,-800,400,=,L,S,0.349286485733511,0.4433493528878,1.65239172879988,1.52374074478821,1.44074603353149,23999.3712710759,23999.7378259943,23999.7378259943,24000.5378244096,0.8,24002.2179731527,24002.2179731527,24003.8179969755,1.6,24005.4879394428,24007.3707375819,1.88279813909321,77,Shorter,Ring,66,=,Index
215,Spatial,2314,3,2,47,1200,2.5,5,1,m,m,-800,0,-800,400,L,S,=,0.335970963757616,0.386835484627409,1.41261374536089,1.03104467108621,1.02571036700856,24008.9546979231,24009.3080938577,24009.3080938577,24012.5080151521,3.2,24013.9481355492,24013.9481355492,24016.3481061829,2.4,24017.5380811033,24017.9866511013,0.44856999807962,66,Longer,Index,66,L,Index
215,Spatial,2314,3,2,48,800,1.66666666666667,5,1,m,m,-800,-400,-800,0,=,L,S,0.337746754601697,0.494006512693772,1.97268251932576,1.48741424304304,1.84679852166103,24019.1547549617,24019.5082638187,24019.5082638187,24021.9081224925,2.4,24023.9082916002,24023.9082916002,24025.508112676,1.6,24027.1381210489,24027.5866807435,0.448559694545111,78,Longer,Middle,78,L,Middle
215,Spatial,2314,3,2,49,1200,6.66666666666667,7.5,1,l,l,-1600,0,-1600,-400,S,=,L,0.285322171042256,0.44788530076139,1.08592775945388,1.22982934606648,1.87369689351136,24030.6215089507,24030.9183493895,24030.9183493895,24033.318216725,2.4,24034.438594893,24034.438594893,24036.0384435577,1.6,24037.4215122229,24038.7705802605,1.34906803764898,66,Shorter,Index,66,S,Index
215,Spatial,2314,3,2,50,1200,5,5,1,r,r,0,800,0,1200,S,=,L,0.226637243924653,0.268840567338955,1.28636894250096,1.42950884294685,1.27829980244082,24040.7882580635,24041.0287508862,24041.0287508862,24042.6285793405,1.6,24043.9388723868,24043.9388723868,24046.3383897271,2.4,24047.9215632304,24048.2507842009,0.329220970452297,77,Longer,Ring,78,=,Middle
215,Spatial,2314,3,2,51,400,3.33333333333333,1.25,2,r,r,0,800,0,400,L,S,=,0.447998162144744,0.33929717880763,1.63323151430221,1.25014552820315,1.25856967608693,24049.6882823162,24050.148642994,24050.148642994,24052.5484817781,2.4,24054.2187225466,24054.2187225466,24057.4186217056,3.2,24058.8216295082,24059.5467761629,0.725146654709533,78,Shorter,Middle,66,L,Index
215,Spatial,2314,3,2,52,1600,15,20,2,r,r,0,1200,0,1600,=,L,S,0.411904367599369,0.309589193112915,1.44536795845163,1.50671214165969,1.43206648572452,24060.9550168004,24061.3789500723,24061.3789500723,24062.1788124674,0.8,24063.6490148037,24063.6490148037,24064.4488512139,0.8,24066.105009454,24066.6587662719,0.553756817847898,78,Longer,Middle,66,=,Index
215,Spatial,2314,3,2,53,400,2.5,1.25,2,m,m,-800,0,-800,-400,=,L,S,0.236469597710779,0.438452877264462,1.22919131630308,1.0354979039669,1.56845810980308,24068.2384409685,24068.489080812,24068.489080812,24071.6889283219,3.2,24072.9490610634,24072.9490610634,24076.1489345583,3.2,24077.3384779997,24078.4027744896,1.06429648985795,77,Shorter,Ring,66,=,Index
215,Spatial,2314,3,2,54,800,3.75,3.33333333333333,1,r,r,0,1200,0,800,L,S,=,0.354741487470446,0.435570616416472,1.23884045567667,1.21603781125652,1.9210568046466,24080.1218332817,24080.4892489123,24080.4892489123,24083.6891217656,3.2,24084.9591775595,24084.9591775595,24087.3589499375,2.4,24088.7218282772,24089.5467828997,0.824954622534278,78,Shorter,Middle,77,=,Ring
215,Spatial,2314,3,2,55,800,15,5,1,l,l,-1600,-400,-1600,-800,L,S,=,0.440414943422777,0.219197531090312,1.46031193090167,1.22510942049551,1.7032374649197,24091.6219038582,24092.0793375371,24092.0793375371,24092.8793484636,0.8,24094.3593580428,24094.3593580428,24095.9592288429,1.6,24097.3219461506,24097.7147266798,0.392780529215088,78,Shorter,Middle,77,=,Ring
215,Spatial,2314,3,2,56,800,1.66666666666667,5,1,m,m,-800,-400,-800,0,S,=,L,0.346867457159183,0.261456753179447,1.75716301123235,1.17605233534332,1.45613836408062,24099.5719600948,24099.9294468986,24099.9294468986,24102.3294130411,2.4,24104.109507697,24104.109507697,24105.7093525122,1.6,24107.0219467173,24107.418825184,0.396878466668568,77,Longer,Ring,78,=,Middle
215,Spatial,2314,3,2,57,400,2.5,5,2,m,m,-800,-400,-800,-400,S,=,L,0.204150076171601,0.415586289862531,1.11635250640268,1.82099924334261,1.56534475104434,24109.0220265971,24109.2395952182,24109.2395952182,24110.8394355422,1.6,24111.9897435892,24111.9897435892,24112.7896233077,0.8,24114.7552241028,24115.098766644,0.343542541253555,78,Equals to,Middle,78,=,Middle
215,Spatial,2314,3,2,58,1600,10,20,2,m,m,-800,800,-800,800,L,S,=,0.230297445741668,0.247708322927484,1.10886742896017,1.2857536736055,1.95269833737507,24116.8220446261,24117.0698478884,24117.0698478884,24118.6697308791,1.6,24119.8099266005,24119.8099266005,24120.6097880332,0.8,24122.0387051013,24122.4348229461,0.396117844749824,77,Equals to,Ring,77,=,Ring
215,Spatial,2314,3,2,59,1200,10,5,1,l,l,-1600,0,-1600,-400,S,=,L,0.444031333991688,0.383194394125549,1.73735000270399,1.31068908416684,1.61610881903388,24124.5387904347,24124.9998504613,24124.9998504613,24126.5998640184,1.6,24128.3699387396,24128.3699387396,24130.7698711979,2.4,24132.2386758442,24133.0907613469,0.852085502756381,66,Shorter,Index,66,S,Index
215,Spatial,2314,3,2,60,1200,3.33333333333333,7.5,1,l,l,-1600,-800,-1600,-400,=,L,S,0.280286198234456,0.243404131230767,1.29808228611321,1.64881059822928,1.13154203585767,24134.8555023666,24135.1500769797,24135.1500769797,24137.5499699793,2.4,24138.890113025,24138.890113025,24140.4899802963,1.6,24142.2888422443,24143.8987904475,1.60994820328415,78,Longer,Middle,66,=,Index
215,Spatial,2314,3,2,61,1200,2.5,5,1,r,r,0,800,0,1200,=,L,S,0.430844068115951,0.204435692342477,1.22991910923028,1.8976200704328,1.5252484213015,24145.1889418854,24145.6301737721,24145.6301737721,24148.8301078986,3.2,24150.0802941692,24150.0802941692,24152.4802545373,2.4,24154.5223008829,24155.3547795993,0.832478716380137,78,Longer,Middle,66,=,Index
215,Spatial,2314,3,2,62,800,5,5,1,r,r,0,400,0,800,L,S,=,0.366659856607157,0.309634574709916,1.52574948140928,1.69566156884275,1.45078077191817,24157.0223563817,24157.4002147642,24157.4002147642,24158.2000749137,0.8,24159.7602673886,24159.7602673886,24161.3601205446,1.6,24163.2056399586,24164.2348159526,1.02917599399007,66,Longer,Index,78,S,Middle
215,Spatial,2314,3,2,63,1200,2.5,5,1,l,l,-1600,-800,-1600,-400,L,S,=,0.477779951043471,0.444670322867894,1.65612990855172,1.34055853045521,1.31883030494701,24165.839052915,24166.3305163247,24166.3305163247,24169.5304417895,3.2,24171.2105135401,24171.2105135401,24173.6105059884,2.4,24175.0891290973,24177.5467383082,2.45760921092005,66,Longer,Index,77,=,Ring
215,Spatial,2314,3,2,64,800,1.66666666666667,5,1,m,m,-800,-400,-800,0,=,L,S,0.222780570792464,0.352056819892138,1.91601832387954,1.04736273581689,1.5513129472022,24179.0224770033,24179.2605394288,24179.2605394288,24181.6604253708,2.4,24183.6007475524,24183.6007475524,24185.2006167486,1.6,24186.4058022203,24186.7948101268,0.389007906491315,78,Longer,Middle,78,L,Middle
215,Spatial,2314,3,2,65,1600,20,20,2,l,l,-1600,0,-1600,0,S,=,L,0.435239171848692,0.473792340222476,1.48046303874568,1.87368251531964,1.18378994588415,24188.5058655467,24188.9608149337,24188.9608149337,24189.760643003,0.8,24191.2709488173,24191.2709488173,24192.0707903603,0.8,24194.0892458882,24194.4506532494,0.36140736123707,78,Equals to,Middle,78,=,Middle
215,Spatial,2314,3,2,66,1200,10,7.5,1,l,l,-1600,-800,-1600,-400,=,L,S,0.262299715399464,0.496269174879892,1.28129699619239,1.28866843504914,1.78819030047336,24195.7892519086,24196.0707451721,24196.0707451721,24196.8707519282,0.8,24198.1808249043,24198.1808249043,24199.7807717345,1.6,24201.2054705751,24201.6347946513,0.429324076267221,78,Longer,Middle,78,L,Middle
215,Spatial,2314,3,2,67,800,15,5,1,m,m,-800,400,-800,0,L,S,=,0.312156526493899,0.453273521188113,1.7638648264137,1.21761932224807,1.83159584921866,24203.5726324961,24203.9010296017,24203.9010296017,24204.7009115657,0.8,24206.5011875647,24206.5011875647,24208.1010618936,1.6,24209.4726766492,24209.9788264159,0.506149766726594,78,Shorter,Middle,78,S,Middle
215,Spatial,2314,3,2,68,800,5,5,1,m,m,-800,-400,-800,0,L,S,=,0.497696197223336,0.461679603455513,1.25240786738888,1.60496813997328,1.25121394182208,24211.9726589944,24212.4813292694,24212.4813292694,24213.2808923561,0.8,24214.5608695984,24214.5608695984,24216.1608914964,1.6,24217.9060030425,24218.3788253251,0.472822282659763,66,Longer,Index,66,L,Index
215,Spatial,2314,3,2,69,1200,5,5,1,l,l,-1600,0,-1600,-400,S,=,L,0.376783851750039,0.248334716620986,1.46442195391648,1.86263928756304,1.9678385775117,24219.7894132721,24220.1812076212,24220.1812076212,24223.3811257076,3.2,24224.8714773068,24224.8714773068,24227.2713269981,2.4,24229.2894693261,24229.6668366918,0.377367365734244,66,Shorter,Index,78,=,Middle
215,Spatial,2314,3,2,70,400,1.25,1.25,2,r,r,0,400,0,400,L,S,=,0.208489586409778,0.212339906862523,1.85537420528906,1.83695884330474,1.42294264029684,24231.78946043,24232.0113499355,24232.0113499355,24235.2111955206,3.2,24237.09147637,24237.09147637,24240.2913543561,3.2,24242.2728332541,24242.9306878062,0.657854552151548,77,Equals to,Ring,77,=,Ring
215,Spatial,2314,3,2,71,1600,5,5,2,m,m,-800,800,-800,800,L,S,=,0.39204730493747,0.378815140297738,1.82120958367759,1.73683623018739,1.10712001445306,24244.5062453764,24244.9116789502,24244.9116789502,24248.1115941493,3.2,24249.9617311447,24249.9617311447,24253.1615696721,3.2,24255.0396258035,24255.4669410167,0.42731521314272,77,Equals to,Ring,77,=,Ring
215,Spatial,2314,3,2,72,800,3.75,3.33333333333333,1,l,l,-1600,-400,-1600,-800,=,L,S,0.440426004431729,0.432829662789184,1.80122404163135,1.50359522981,1.81691075079045,24256.7229950346,24257.1818181077,24257.1818181077,24260.3818430212,3.2,24262.2018801124,24262.2018801124,24264.601737503,2.4,24266.2563145093,24266.8666624321,0.610347922774963,77,Shorter,Ring,66,=,Index
215,Spatial,2314,3,2,73,400,3.33333333333333,1.25,2,r,r,0,800,0,400,L,S,=,0.352814342478678,0.455868168897048,1.60261129400639,1.52222667422512,1.32080412610257,24268.8397217875,24269.2121127389,24269.2121127389,24271.6119771871,2.4,24273.2421895453,24273.2421895453,24276.4420806843,3.2,24278.1064014146,24279.0669129144,0.960511499793938,78,Shorter,Middle,66,L,Index
215,Spatial,2314,3,2,74,1200,10,7.5,1,m,m,-800,0,-800,400,L,S,=,0.294196211092535,0.279905182171205,1.43627053950274,1.04283103481979,1.37572786806214,24280.5398198888,24280.852172716,24280.852172716,24281.6520091262,0.8,24283.1221347908,24283.1221347908,24284.7220155358,1.6,24285.906462752,24286.3148612242,0.408398472209228,66,Longer,Index,66,L,Index
215,Spatial,2314,3,2,75,1200,10,5,1,l,l,-1600,0,-1600,-400,L,S,=,0.445430160087778,0.377343320350494,1.47011808406162,1.85081138896124,1.87800624194894,24287.8398597325,24288.3021837195,24288.3021837195,24289.9020288555,1.6,24291.4125293967,24291.4125293967,24293.8120884413,2.4,24295.8063410396,24296.7628607982,0.956519758525246,78,Shorter,Middle,77,=,Ring
215,Spatial,2314,3,2,76,1200,10,5,1,l,l,-1600,0,-1600,-400,=,L,S,0.277395391523586,0.330029483499511,1.83027420675754,1.86306856087167,1.13452865250251,24298.8065745836,24299.1025738791,24299.1025738791,24300.7024555865,1.6,24302.5724505564,24302.5724505564,24304.9724596864,2.4,24306.9899133385,24307.4188444321,0.428931093621941,77,Shorter,Ring,66,=,Index
215,Spatial,2314,3,2,77,800,5,5,1,l,l,-1600,-400,-1600,-800,S,=,L,0.340748592316337,0.294778197707066,1.35849525498368,1.57575815111092,1.7512961084687,24308.7066354077,24309.0627494991,24309.0627494991,24311.4623213758,2.4,24312.8424475986,24312.8424475986,24314.4424139977,1.6,24316.1567094258,24317.0110096093,0.854300183535088,66,Shorter,Index,66,S,Index
215,Spatial,2314,3,2,78,1200,5,5,1,r,r,0,800,0,1200,L,S,=,0.22377408622819,0.319621835361342,1.69245801237554,1.40820898579373,1.53675361408294,24318.9067283762,24319.1429009562,24319.1429009562,24320.7424467837,1.6,24322.4626431852,24322.4626431852,24324.8626757338,2.4,24326.4067120153,24326.8349225872,0.428210571968521,66,Longer,Index,77,=,Ring
215,Spatial,2314,3,2,79,1600,20,20,2,r,r,0,1600,0,1600,S,=,L,0.273302948641691,0.216823327621308,1.66990687167165,1.4859843664578,1.18827433011781,24328.5234563638,24328.812802271,24328.812802271,24329.6125584806,0.8,24331.3130755945,24331.3130755945,24332.1128571474,0.8,24333.7400902609,24334.4189230287,0.67883276775683,78,Equals to,Middle,78,=,Middle
215,Spatial,2314,3,2,80,1200,5,5,1,m,m,-800,800,-800,400,=,L,S,0.229876425695419,0.363795956037495,1.14928622614644,1.29517133630415,1.88203713439894,24335.7568435121,24336.0029834152,24336.0029834152,24339.2029894013,3.2,24340.3830460742,24340.3830460742,24342.7828097906,2.4,24344.2234942028,24344.7868869551,0.563392752312211,77,Shorter,Ring,66,=,Index
215,Spatial,2314,3,2,81,1200,5,5,1,m,m,-800,800,-800,400,S,=,L,0.498648190568434,0.23793117796902,1.41800044498466,1.6869962455597,1.14896773713225,24346.8236442238,24347.3331895691,24347.3331895691,24350.5330264925,3.2,24351.9731311702,24351.9731311702,24354.373045022,2.4,24356.2069722121,24356.6107819681,0.403809755989641,66,Shorter,Index,66,S,Index
215,Spatial,2314,3,2,82,800,5,5,1,l,l,-1600,-400,-1600,-800,S,=,L,0.343397724560099,0.371149362683313,1.04433917018044,1.12923252644256,1.26927437576727,24357.9236137978,24358.2832252743,24358.2832252743,24360.683155487,2.4,24361.7531956258,24361.7531956258,24363.3531921804,1.6,24364.6403021828,24365.7469252717,1.10662308890096,66,Shorter,Index,78,=,Middle
215,Spatial,2314,3,2,83,1200,5,5,1,l,l,-1600,-800,-1600,-400,S,=,L,0.459664428733527,0.312115774109428,1.68472022881453,1.52399871749454,1.4563228263906,24367.1737053868,24367.6534810114,24367.6534810114,24369.2533341674,1.6,24370.9735934461,24370.9735934461,24373.3732506562,2.4,24375.0404219966,24375.4667883148,0.426366318224609,77,Longer,Ring,77,L,Ring
215,Spatial,2314,3,2,84,800,15,5,1,l,l,-1600,-400,-1600,-800,S,=,L,0.357661267809984,0.338808584498525,1.02915330821846,1.84638448116085,1.18721017126232,24377.073745038,24377.4435410207,24377.4435410207,24378.2434050198,0.8,24379.3037415348,24379.3037415348,24380.9036562849,1.6,24382.9070783713,24383.5389004698,0.631822098523116,66,Shorter,Index,77,L,Ring
215,Spatial,2314,3,2,85,800,5,5,1,r,r,0,1200,0,800,L,S,=,0.411512959975737,0.460760600066757,1.54787403482536,1.17764580100867,1.79186044529126,24384.8738275483,24385.303682828,24385.303682828,24387.7035700532,2.4,24389.2838088135,24389.2838088135,24390.8836555534,1.6,24392.2238804593,24394.1788513743,1.95497091503057,78,Shorter,Middle,77,=,Ring
215,Spatial,2314,3,2,86,1600,3.75,5,2,l,l,-1600,-400,-1600,0,L,S,=,0.343286140864669,0.494841977283546,1.65232337953492,1.26244528516451,1.25338946047116,24396.140566203,24396.5037956862,24396.5037956862,24399.7036845796,3.2,24401.3941243352,24401.3941243352,24404.5937427924,3.2,24406.0072366551,24406.418937144,0.411700488839415,66,Longer,Index,77,=,Ring
215,Spatial,2314,3,2,87,1200,10,7.5,1,m,m,-800,0,-800,400,L,S,=,0.386051381222007,0.204430547186081,1.21365586993959,1.93502603109167,1.38928075247703,24407.8239774592,24408.2239513009,24408.2239513009,24409.0237995808,0.8,24410.2740602774,24410.2740602774,24411.8739358896,1.6,24413.9572807012,24414.3789738566,0.421693155301909,66,Longer,Index,66,L,Index
215,Spatial,2314,3,2,88,1200,2.5,5,1,r,r,0,800,0,1200,=,L,S,0.346202202679609,0.302424434909857,1.06509411572266,1.39433521541549,1.10694461274505,24415.9240334071,24416.2839387383,24416.2839387383,24419.4839052658,3.2,24420.5844100609,24420.5844100609,24422.9839954112,2.4,24424.5406863755,24424.9869112719,0.446224896430067,78,Longer,Middle,77,S,Ring
215,Spatial,2314,3,2,89,1200,5,5,1,r,r,0,800,0,1200,L,S,=,0.454281789815914,0.259388826209126,1.44396769812859,1.96927847290073,1.41106019531877,24426.240784156,24426.7144565194,24426.7144565194,24428.3143173747,1.6,24429.7842322723,24429.7842322723,24432.1842677081,2.4,24434.3074743473,24434.6749359839,0.367461636658845,66,Longer,Index,77,=,Ring
215,Spatial,2314,3,2,90,400,10,5,2,r,r,0,800,0,400,L,S,=,0.422001910156176,0.323716163960222,1.07485258784591,1.65569994138456,1.92270704931682,24436.2241688497,24436.664361979,24436.664361979,24437.4644004945,0.8,24438.5644629034,24438.5644629034,24439.3642855191,0.8,24441.1574577199,24442.2590172675,1.10155954761649,78,Shorter,Middle,66,L,Index
215,Spatial,2314,3,2,91,1200,20,7.5,1,l,l,-1600,0,-1600,-400,L,S,=,0.482979462849017,0.215227311812681,1.35477807626882,1.23095144034967,1.09106131948013,24444.3242231936,24444.8247126928,24444.8247126928,24445.6246017145,0.8,24447.0147096965,24447.0147096965,24448.614568627,1.6,24449.9909167213,24450.3869669632,0.396050241892226,78,Shorter,Middle,78,S,Middle
215,Spatial,2314,3,2,92,800,5,5,1,r,r,0,1200,0,800,=,L,S,0.324575425508479,0.3311747038598,1.17116133791585,1.07917968807758,1.51306190011203,24451.6242838894,24451.9647364193,24451.9647364193,24454.3645764866,2.4,24455.564904648,24455.564904648,24457.1644767813,1.6,24458.3909064137,24458.9069263111,0.51601989743358,77,Shorter,Ring,66,=,Index
215,Spatial,2314,3,2,93,800,7.5,3.33333333333333,1,r,r,0,1200,0,800,=,L,S,0.300156125839177,0.287459955813775,1.8178746574215,1.07276915886496,1.68840975727147,24460.5742852688,24460.8845506364,24460.8845506364,24462.4846790406,1.6,24464.3449418354,24464.3449418354,24466.7448017924,2.4,24467.957708662,24470.0349908539,2.0772821919345,77,Shorter,Ring,66,=,Index
215,Spatial,2314,3,2,94,1600,10,20,2,m,m,-800,800,-800,800,S,=,L,0.270330017601235,0.439475604973857,1.66643422458929,1.77332750026067,1.12115303494966,24471.8744082002,24472.16491825,24472.16491825,24473.7647335513,1.6,24475.4550000738,24475.4550000738,24476.2547989501,0.8,24478.1744021691,24478.4989375032,0.324535334111715,78,Equals to,Middle,78,=,Middle
215,Spatial,2314,3,2,95,400,2.5,5,2,r,r,0,400,0,400,S,=,L,0.405365996440919,0.309795256052275,1.87344451192149,1.65964272954742,1.03013403621118,24479.7744456057,24480.1951015628,24480.1951015628,24481.7948947288,1.6,24483.6950967507,24483.6950967507,24484.4948824741,0.8,24486.2911519819,24486.77091197,0.479759988025762,78,Equals to,Middle,66,S,Index
215,Spatial,2314,3,2,96,1200,6.66666666666667,7.5,1,r,r,0,1600,0,1200,S,=,L,0.312755066048466,0.249799306126385,1.96967090244387,1.53341128023954,1.81576948917605,24487.9577984759,24488.2852302878,24488.2852302878,24490.6851983552,2.4,24492.6951618736,24492.6951618736,24494.2951882627,1.6,24495.9745087396,24496.3390615767,0.364552837076189,66,Shorter,Index,78,=,Middle
