Subject,Task,SequenceOrder,ListNo,RunNo,TrialNo,Aud_Probe_Dist,Aud_Standard_Vel,Aud_Probe_Vel,Main_Control,Aud_Std_StartCode,Aud_Probe_StartCode,Aud_Std_StartPt,Aud_Std_EndPt,Aud_Probe_StartPt,Aud_Probe_EndPt,RespIndex,RespMiddle,RespRing,ISI_Cross_Std,ISI_Cross_Probe,ISI_Std_Probe,ISI_Probe_Response,ITI,TrialOnset,StdOnset,StdOnsetByStop,StdOffset,StdDur,ProbeOnset,ProbeOnsetByStop,ProbeOffset,ProbeDur,RespWinStart,RespTime,RT,CorrectKC,CorrectResponse,CorrectFinger,SubjRespKC,SubjResponse,SubjRespFinger
211,Spatial,1243,1,1,1,1200,10,5,1,l,l,-1600,0,-1600,-400,L,S,=,0.207453751219427,0.479126737017931,1.01076244840917,1.90443032780992,1.48181068004447,11903.4260186732,11903.6444479262,11903.6444479262,11905.2447246881,1.6,11906.2850186706,11906.2850186706,11908.6848868597,2.4,11910.7260396536,11911.529594263,0.803554609405182,78,Shorter,Middle,77,=,Ring
211,Spatial,1243,1,1,2,800,15,5,1,r,r,0,1200,0,800,=,L,S,0.457461924256627,0.388827205320198,1.10150745366423,1.45893678485765,1.68954016390282,11913.1594197598,11913.6350959197,11913.6350959197,11914.4351091752,0.8,11915.5551024512,11915.5551024512,11917.1549958552,1.6,11918.7594145629,11919.9453046203,1.18589005746253,77,Shorter,Ring,78,L,Middle
211,Spatial,1243,1,1,3,800,5,5,1,m,m,-800,400,-800,0,=,L,S,0.471284525709315,0.3264295028838,1.49247629189735,1.86707584465923,1.08367117535054,11921.7761289648,11922.2653477617,11922.2653477617,11924.6651976651,2.4,11926.1854235864,11926.1854235864,11927.7851954066,1.6,11929.7928003793,11930.2254375091,0.432637129828436,77,Shorter,Ring,77,S,Ring
211,Spatial,1243,1,1,4,400,2.5,1.25,2,m,m,-800,0,-800,-400,L,S,=,0.319839631360038,0.216834327896573,1.21930162535348,1.77379679366953,1.51962857571074,11931.4595533416,11931.7954578736,11931.7954578736,11934.995374632,3.2,11936.2454153995,11936.2454153995,11939.4453469148,3.2,11941.3595155512,11941.8574223211,0.497906769938709,78,Shorter,Middle,77,=,Ring
211,Spatial,1243,1,1,5,1600,10,20,2,m,m,-800,800,-800,800,=,L,S,0.243285640077029,0.461540719193852,1.21053247897865,1.16159048813165,1.8441942564586,11943.5262348293,11943.7854389207,11943.7854389207,11945.3852428211,1.6,11946.6155472361,11946.6155472361,11947.4154703464,0.8,11948.7262202649,11949.1533931821,0.427172917163261,66,Equals to,Index,77,S,Ring
211,Spatial,1243,1,1,6,800,2.5,3.33333333333333,1,r,r,0,400,0,800,S,=,L,0.423443739636808,0.289116108707846,1.78483444315581,1.1017820944595,1.20581605927665,11951.1429166032,11951.5855792393,11951.5855792393,11953.1854232399,1.6,11954.9955629682,11954.9955629682,11957.3953945859,2.4,11958.6429193325,11959.0494230063,0.406503673819316,77,Longer,Ring,77,L,Ring
211,Spatial,1243,1,1,7,1200,2.5,5,1,r,r,0,800,0,1200,L,S,=,0.301684910919825,0.482306086791944,1.46001996489324,1.98836234165444,1.6202913967797,11960.409652341,11960.7258112173,11960.7258112173,11963.9256522665,3.2,11965.4156981411,11965.4156981411,11967.8156940092,2.4,11969.9429816963,11970.409493865,0.466512168643021,66,Longer,Index,77,=,Ring
211,Spatial,1243,1,1,8,800,1.25,3.33333333333333,1,r,r,0,400,0,800,L,S,=,0.478226715320669,0.36597674901229,1.4352907307022,1.17969544947524,1.46637183584875,11972.176355194,11972.66578572,11972.66578572,11975.8658834105,3.2,11977.3259333785,11977.3259333785,11979.7257457481,2.4,11981.0597133574,11981.5534022287,0.493688871265476,66,Longer,Index,77,=,Ring
211,Spatial,1243,1,1,9,1200,5,5,1,r,r,0,1600,0,1200,S,=,L,0.400247794313255,0.424515424244367,1.5842318779689,1.5294706372251,1.01526718795411,11983.1764097303,11983.5961429132,11983.5961429132,11986.7960019274,3.2,11988.4060436187,11988.4060436187,11990.8058858229,2.4,11992.4931123909,11993.2013276693,0.708215278365969,66,Shorter,Index,78,=,Middle
211,Spatial,1243,1,1,10,1600,5,5,2,l,l,-1600,-400,-1600,0,S,=,L,0.349794668353943,0.263850262761311,1.41518505189664,1.56791463423361,1.37616573700321,11994.3764519478,11994.7463328919,11994.7463328919,11997.1461616224,2.4,11998.5862830778,11998.5862830778,12001.786266563,3.2,12003.509828076,12004.009449851,0.499621774981279,77,Longer,Ring,77,L,Ring
211,Spatial,1243,1,1,11,800,3.75,3.33333333333333,1,m,m,-800,400,-800,0,S,=,L,0.245368513779446,0.493493653382773,1.11569140328375,1.42156339901729,1.38436100278064,12005.5431750755,12005.8064604041,12005.8064604041,12009.0060383961,3.2,12010.156563638,12010.156563638,12012.5561020431,2.4,12014.1265039176,12014.6733014842,0.546797566526948,66,Shorter,Index,78,=,Middle
211,Spatial,1243,1,1,12,1200,3.33333333333333,7.5,1,l,l,-1600,-800,-1600,-400,=,L,S,0.443560546526372,0.234903603130937,1.4530862937771,1.35710036027407,1.59953017586206,12016.2098930704,12016.6664895586,12016.6664895586,12019.0663455572,2.4,12020.5464478672,12020.5464478672,12022.1462678077,1.6,12023.6432199236,12024.377200057,0.733980133403747,78,Longer,Middle,78,L,Middle
211,Spatial,1243,1,1,13,1200,5,5,1,m,m,-800,0,-800,400,S,=,L,0.285392441517206,0.200286314644703,1.59507632134539,1.23594775020038,1.97301069785259,12026.1265927797,12026.4265168523,12026.4265168523,12028.026362457,1.6,12029.6567458533,12029.6567458533,12032.056569451,2.4,12033.443340418,12033.9372322911,0.493891873089524,77,Longer,Ring,77,L,Ring
211,Spatial,1243,1,1,14,800,5,5,1,m,m,-800,-400,-800,0,L,S,=,0.304859045437781,0.348455923059336,1.51412181396626,1.1070790056539,1.2712780161216,12036.0599818683,12036.3768625481,12036.3768625481,12037.1766756234,0.8,12038.7268159677,12038.7268159677,12040.3266554771,1.6,12041.5766459044,12042.3853246768,0.808678772433268,66,Longer,Index,66,L,Index
211,Spatial,1243,1,1,15,800,5,5,1,m,m,-800,400,-800,0,=,L,S,0.346525654198823,0.441054786656041,1.31151420181693,1.31598633194345,1.77334884162716,12043.8100056076,12044.1767629071,12044.1767629071,12046.5765951664,2.4,12047.9167753927,12047.9167753927,12049.5167348819,1.6,12050.9767578498,12051.4092593591,0.432501509238136,77,Shorter,Ring,66,=,Index
211,Spatial,1243,1,1,16,1200,10,7.5,1,m,m,-800,0,-800,400,L,S,=,0.376966600480457,0.323797282223791,1.85255035933922,1.72559297589727,1.32431692062131,12053.3267459945,12053.7169028793,12053.7169028793,12054.516757338,0.8,12056.3971680025,12056.3971680025,12057.9967072416,1.6,12059.8600554602,12060.3693365696,0.50928110940913,66,Longer,Index,66,L,Index
211,Spatial,1243,1,1,17,1600,20,20,2,r,r,0,1600,0,1600,=,L,S,0.283950130759048,0.401543353154225,1.76302778858507,1.88764020052096,1.68432616043015,12061.8434972886,12062.1471416968,12062.1471416968,12062.9469515641,0.8,12064.7371797823,12064.7371797823,12065.5370265418,0.8,12067.5768239996,12067.9932426363,0.416418636752496,66,Equals to,Index,66,=,Index
211,Spatial,1243,1,1,18,1600,15,20,2,l,l,-1600,-400,-1600,0,L,S,=,0.398122381328182,0.492477748434848,1.3892274879806,1.63924976331767,1.06981100250829,12069.8268043804,12070.2371262085,12070.2371262085,12071.0370743413,0.8,12072.4672580066,12072.4672580066,12073.2670880844,0.8,12075.0434589849,12075.5132375548,0.469778569944538,66,Longer,Index,77,=,Ring
211,Spatial,1243,1,1,19,400,2.5,5,2,l,l,-1600,-1200,-1600,-1200,S,=,L,0.290200335390726,0.452622188759049,1.40821533597424,1.43058908899133,1.11252708074925,12076.7268827201,12077.0370881614,12077.0370881614,12078.6370492546,1.6,12080.0871607909,12080.0871607909,12080.8869770742,0.8,12082.4769041681,12082.8732234011,0.396319232953829,78,Equals to,Middle,66,S,Index
211,Spatial,1243,1,1,20,1200,2.5,5,1,r,r,0,800,0,1200,L,S,=,0.354055686216358,0.42981997160791,1.51528906567633,1.48351820665915,1.38497241369999,12084.1435301387,12084.5173880595,12084.5173880595,12087.7171928582,3.2,12089.2575147505,12089.2575147505,12091.6573855059,2.4,12093.2935609998,12093.6734169727,0.379855972940277,66,Longer,Index,66,L,Index
211,Spatial,1243,1,1,21,800,7.5,3.33333333333333,1,m,m,-800,400,-800,0,=,L,S,0.299488566589278,0.352736514586973,1.4532353897142,1.74678076397591,1.72997767709391,12095.2102385737,12095.5274532079,12095.5274532079,12097.1273241558,1.6,12098.6077142249,12098.6077142249,12101.0072167002,2.4,12102.9102862448,12103.4091891035,0.498902858726069,77,Shorter,Ring,78,L,Middle
211,Spatial,1243,1,1,22,1200,5,5,1,l,l,-1600,-800,-1600,-400,S,=,L,0.219759413991321,0.431721181527501,1.50389506836141,1.04198224006973,1.19057330726102,12105.2936309345,12105.5277448165,12105.5277448165,12107.1275429425,1.6,12108.6674981586,12108.6674981586,12111.0674818362,2.4,12112.2436243902,12113.1210628027,0.87743841252086,77,Longer,Ring,77,L,Ring
211,Spatial,1243,1,1,23,1200,5,5,1,l,l,-1600,0,-1600,-400,S,=,L,0.392661687583646,0.416242841953913,1.05975562540736,1.51924313933851,1.09596705126425,12114.4769978878,12114.8877001866,12114.8877001866,12118.0875223085,3.2,12119.187764796,12119.187764796,12121.5875691456,2.4,12123.2604273989,12123.6411042374,0.380676838534782,66,Shorter,Index,77,L,Ring
211,Spatial,1243,1,1,24,800,5,5,1,r,r,0,400,0,800,=,L,S,0.389723049425207,0.278837351134464,1.80958671195883,1.17671118133786,1.02458981925384,12124.8770617915,12125.2780473323,12125.2780473323,12126.0775854808,0.8,12127.9179075014,12127.9179075014,12129.5178365144,1.6,12130.8437625915,12131.3371758942,0.493413302741828,78,Longer,Middle,78,L,Middle
211,Spatial,1243,1,1,25,400,3.33333333333333,1.25,2,r,r,0,800,0,400,=,L,S,0.281892369850064,0.328538981277687,1.63395811959512,1.43734529807463,1.24283598765926,12135.2604266917,12135.5580358605,12135.5580358605,12137.958006706,2.4,12139.6278711481,12139.6278711481,12142.8278847886,3.2,12144.4104357383,12144.9373121707,0.52687643237914,77,Shorter,Ring,78,L,Middle
211,Spatial,1243,1,1,26,800,3.75,3.33333333333333,1,r,r,0,1200,0,800,L,S,=,0.315207424910469,0.218915739635018,1.14539058849625,1.71248229626653,1.47500943454131,12146.3604747478,12146.6880602542,12146.6880602542,12149.8880581754,3.2,12151.0681484875,12151.0681484875,12153.4681119546,2.4,12155.3271566204,12156.1051247405,0.777968120026344,78,Shorter,Middle,77,=,Ring
211,Spatial,1243,1,1,27,400,10,5,2,m,m,-800,0,-800,-400,L,S,=,0.280491867600372,0.452191895788111,1.8756793494994,1.25274530190335,1.55701427014688,12157.7272051256,12158.0184511958,12158.0184511958,12158.8179967227,0.8,12160.7181703662,12160.7181703662,12161.5180719827,0.8,12162.9105928046,12163.4651346468,0.554541842215258,78,Shorter,Middle,77,=,Ring
211,Spatial,1243,1,1,28,800,1.66666666666667,5,1,r,r,0,400,0,800,L,S,=,0.478939289293673,0.388772184289166,1.89792731603791,1.72835776330161,1.27896250758323,12165.1605740038,12165.6582516958,12165.6582516958,12168.0581991228,2.4,12169.9884219259,12169.9884219259,12171.588279721,1.6,12173.4772359226,12173.8650606058,0.387824683240979,66,Longer,Index,77,=,Ring
211,Spatial,1243,1,1,29,1200,5,5,1,r,r,0,1600,0,1200,L,S,=,0.352149622716298,0.486825792879659,1.29839146886542,1.50818047559682,1.20863331353206,12175.2939398664,12175.6584836353,12175.6584836353,12178.8583115317,3.2,12180.1884978275,12180.1884978275,12182.5883220668,2.4,12184.2439416629,12184.8490285488,0.605086885891069,78,Shorter,Middle,77,=,Ring
211,Spatial,1243,1,1,30,1600,15,20,2,r,r,0,1200,0,1600,L,S,=,0.20351157688359,0.223813769556737,1.36972516088518,1.75019791703436,1.89065814223651,12186.210684167,12186.4285959671,12186.4285959671,12187.2285216438,0.8,12188.6287475779,12188.6287475779,12189.4285561621,0.8,12191.32732055,12191.7771449433,0.449824393235758,66,Longer,Index,77,=,Ring
211,Spatial,1243,1,1,31,400,5,5,2,r,r,0,400,0,400,=,L,S,0.213935835082844,0.449606304641433,1.89682253793064,1.54316477888533,1.82863650949091,12193.8106985389,12194.0386623346,12194.0386623346,12194.8384349889,0.8,12196.7688361577,12196.7688361577,12197.5685254036,0.8,12199.2440966276,12200.6328913971,1.38879476955481,66,Equals to,Index,66,=,Index
211,Spatial,1243,1,1,32,1200,20,7.5,1,l,l,-1600,0,-1600,-400,S,=,L,0.460975186037587,0.200312020782189,1.31976580112536,1.24026897394038,1.71031753437214,12202.6107381259,12203.088851415,12203.088851415,12203.88884446,0.8,12205.2490215296,12205.2490215296,12206.8487981619,1.6,12208.2273905489,12210.2968642932,2.06947374431911,66,Shorter,Index,78,=,Middle
211,Spatial,1243,1,1,33,1200,5,5,1,m,m,-800,0,-800,400,=,L,S,0.486223458769036,0.371489525942456,1.34245544497018,1.29879859945663,1.66277857390932,12212.1441338637,12212.6489664159,12212.6489664159,12214.2489201307,1.6,12215.619021196,12215.619021196,12218.0188403024,2.4,12219.4608649399,12221.2249033746,1.76403843471417,78,Longer,Middle,66,=,Index
211,Spatial,1243,1,1,34,400,1.66666666666667,1.25,2,m,m,-800,-400,-800,-400,=,L,S,0.285557403348319,0.263633370514372,1.85213492966975,1.55296613573617,1.00104894141806,12223.0441541618,12223.3491331044,12223.3491331044,12225.7489833286,2.4,12227.6293782738,12227.6293782738,12230.8292411375,3.2,12232.5275135442,12233.0568736222,0.529360077916863,66,Equals to,Index,78,L,Middle
211,Spatial,1243,1,1,35,400,1.25,1.25,2,r,r,0,400,0,400,L,S,=,0.31106125107864,0.376444076017764,1.74991079026242,1.8968127390088,1.97893107024934,12234.210879856,12234.5393199777,12234.5393199777,12237.7393025005,3.2,12239.5295210946,12239.5295210946,12242.729387808,3.2,12244.7776410008,12245.2809358551,0.503294854308479,77,Equals to,Ring,66,L,Index
211,Spatial,1243,1,1,36,1200,3.33333333333333,7.5,1,m,m,-800,0,-800,400,=,L,S,0.47576291846946,0.470864136884195,1.07896519270639,1.54734211681812,1.66394056247987,12247.4109554368,12247.899359077,12247.899359077,12250.2993010504,2.4,12251.4096324256,12251.4096324256,12253.0094469125,1.6,12254.7109414499,NaN,NaN,78,Longer,Middle,999,Missed,Missed
211,Spatial,1243,1,1,37,800,2.5,3.33333333333333,1,l,l,-1600,-1200,-1600,-800,S,=,L,0.347470563544661,0.423556650786281,1.34821395336588,1.56108635120567,1.47612111904665,12259.4776510398,12259.8397342608,12259.8397342608,12261.4395298204,1.6,12262.8196286658,12262.8196286658,12265.2196046442,2.4,12266.9277437367,12267.553057367,0.625313630353048,77,Longer,Ring,77,L,Ring
211,Spatial,1243,1,1,38,1600,20,20,2,r,r,0,1600,0,1600,S,=,L,0.349030502078714,0.293206771350143,1.11750088770312,1.36985167831118,1.99994651680857,12269.1777160342,12269.5399583728,12269.5399583728,12270.3397265359,0.8,12271.489658295,12271.489658295,12272.2895243026,0.8,12273.8110539871,12274.2569283509,0.445874363849725,78,Equals to,Middle,78,=,Middle
211,Spatial,1243,1,1,39,800,1.66666666666667,5,1,l,l,-1600,-1200,-1600,-800,=,L,S,0.367803396739451,0.249421938652234,1.88963099097633,1.20131054950016,1.38101868452123,12276.4110856822,12276.7896815211,12276.7896815211,12279.189574091,2.4,12281.1200666882,12281.1200666882,12282.7198462077,1.6,12284.061094408,12284.5449009878,0.483806579768498,78,Longer,Middle,77,S,Ring
211,Spatial,1243,1,1,40,1200,5,5,1,m,m,-800,0,-800,400,S,=,L,0.367942975312789,0.358884408957647,1.09596710767287,1.0694875798004,1.75430448624064,12286.0777809002,12286.4599562427,12286.4599562427,12288.0597723336,1.6,12289.1901483515,12289.1901483515,12291.5900037085,2.4,12292.8111110897,12293.8409138738,1.02980278404357,77,Longer,Ring,78,=,Middle
211,Spatial,1243,1,1,41,400,2.5,5,2,l,l,-1600,-1200,-1600,-1200,S,=,L,0.258211864262404,0.349537720265391,1.44639322840121,1.00539959291076,1.3066878447016,12295.7445239177,12296.0200600156,12296.0200600156,12297.6198542919,1.6,12299.0901266011,12299.0901266011,12299.8899499421,0.8,12301.0445586141,12302.0408739661,0.996315351951125,78,Equals to,Middle,66,S,Index
211,Spatial,1243,1,1,42,1200,5,5,1,m,m,-800,800,-800,400,S,=,L,0.367071022161119,0.238688389618597,1.66224458492706,1.08775835470479,1.85776425260425,12303.5278638595,12303.9101123447,12303.9101123447,12307.110001835,3.2,12308.8001829595,12308.8001829595,12311.2001958301,2.4,12312.4278745101,12312.8408667159,0.412992205805494,66,Shorter,Index,78,=,Middle
211,Spatial,1243,1,1,43,800,3.75,3.33333333333333,1,m,m,-800,400,-800,0,S,=,L,0.406855945596763,0.318360861370468,1.52841494928007,1.33703986155497,1.43773781450354,12314.8445883346,12315.2705277442,12315.2705277442,12318.4700435007,3.2,12320.0203933284,12320.0203933284,12322.4204033117,2.4,12323.8946651521,12324.3448427303,0.450177578186413,66,Shorter,Index,78,=,Middle
211,Spatial,1243,1,1,44,800,5,5,1,l,l,-1600,-1200,-1600,-800,L,S,=,0.400107066151752,0.497325035719324,1.69945168743309,1.1697178556819,1.69482786188438,12325.9279922443,12326.3405407559,12326.3405407559,12327.1403223927,0.8,12328.8807092794,12328.8807092794,12330.4805086886,1.6,12331.7946465922,12332.2568808723,0.462234280083067,66,Longer,Index,66,L,Index
211,Spatial,1243,1,1,45,1200,20,7.5,1,l,l,-1600,0,-1600,-400,=,L,S,0.308235070248906,0.366073589929273,1.78602423096225,1.56713870042984,1.98346316541909,12334.0946826503,12334.420488029,12334.420488029,12335.2203071996,0.8,12337.0306785466,12337.0306785466,12338.6304898255,1.6,12340.3447429305,12340.8488395967,0.504096666147234,77,Shorter,Ring,78,L,Middle
211,Spatial,1243,1,1,46,400,10,5,2,r,r,0,800,0,400,=,L,S,0.419903851156953,0.252348417506392,1.05670015866752,1.1958911276156,1.98225342829082,12342.9780414553,12343.4106477625,12343.4106477625,12344.210418492,0.8,12345.3007889536,12345.3007889536,12346.1005693072,0.8,12347.444697343,12349.3848178104,1.9401204673959,77,Shorter,Ring,78,L,Middle
211,Spatial,1243,1,1,47,800,1.25,3.33333333333333,1,r,r,0,400,0,800,L,S,=,0.440739508379389,0.217129269913032,1.10491165170663,1.23807270950406,1.98340020321095,12351.5280954782,12351.9807188393,12351.9807188393,12355.1807321589,3.2,12356.3110324677,12356.3110324677,12358.7109012983,2.4,12360.094755793,12361.8328508478,1.73809505477948,66,Longer,Index,77,=,Ring
211,Spatial,1243,1,1,48,800,7.5,3.33333333333333,1,r,r,0,1200,0,800,L,S,=,0.358634894474333,0.469248475082509,1.24267790828033,1.37897554302047,1.94953422140967,12363.9781543774,12364.3508057636,12364.3508057636,12365.9507857841,1.6,12367.2208695903,12367.2208695903,12369.6207291177,2.4,12371.1448290641,12371.7767920616,0.631962997467781,78,Shorter,Middle,66,L,Index
211,Spatial,1243,1,1,49,400,1.66666666666667,1.25,2,r,r,0,400,0,400,L,S,=,0.437183324305705,0.414728916834642,1.43519051188097,1.4587141013837,1.18123302895951,12394.2116334188,12394.6614735056,12394.6614735056,12397.0613583764,2.4,12398.5314276182,12398.5314276182,12401.7313514342,3.2,12403.3282884083,12403.7208272702,0.392538861899084,77,Equals to,Ring,66,L,Index
211,Spatial,1243,1,1,50,800,1.66666666666667,5,1,l,l,-1600,-1200,-1600,-800,L,S,=,0.381214478574683,0.391210488246098,1.36245390193625,1.69707656437343,1.32475647885657,12405.0616404123,12405.4614203809,12405.4614203809,12407.861207728,2.4,12409.2514872103,12409.2514872103,12410.8514521531,1.6,12412.694994726,12413.2967747896,0.601780063596379,66,Longer,Index,78,S,Middle
211,Spatial,1243,1,1,51,400,5,5,2,m,m,-800,0,-800,-400,S,=,L,0.493292778359479,0.444143906459769,1.92729957984416,1.32123018668061,1.36763700610953,12414.7617256172,12415.2716816673,12415.2716816673,12416.8716321741,1.6,12418.8418441726,12418.8418441726,12419.6413528073,0.8,12421.1117729859,12421.5207446317,0.408971645765632,66,Shorter,Index,66,S,Index
211,Spatial,1243,1,1,52,1600,5,5,2,r,r,0,1600,0,1600,S,=,L,0.247455441720359,0.390784166282245,1.0027976151456,1.60429404937994,1.90603018360093,12423.0450864111,12423.3116500107,12423.3116500107,12426.5114881727,3.2,12427.5417648063,12427.5417648063,12430.7416658454,3.2,12432.4951424231,12432.9686018699,0.473459446835477,78,Equals to,Middle,77,L,Ring
211,Spatial,1243,1,1,53,1200,10,5,1,l,l,-1600,0,-1600,-400,=,L,S,0.324608037207011,0.366148667418028,1.55190400981087,1.48722164783976,1.75821147178797,12435.0284502847,12435.3717249114,12435.3717249114,12436.9717479193,1.6,12438.5618636645,12438.5618636645,12440.9617180591,2.4,12442.5952132256,12444.2646734625,1.66946023694982,77,Shorter,Ring,78,L,Middle
211,Spatial,1243,1,1,54,1200,6.66666666666667,7.5,1,l,l,-1600,0,-1600,-400,S,=,L,0.266927443814297,0.464125233651804,1.84767801061594,1.68050572606267,1.8242525029007,12446.1619005182,12446.4419817323,12446.4419817323,12448.8418621118,2.4,12450.7220158142,12450.7220158142,12452.3218671933,1.6,12454.1618504731,12454.5287191164,0.366868643317503,66,Shorter,Index,66,S,Index
211,Spatial,1243,1,1,55,800,5,5,1,l,l,-1600,-1200,-1600,-800,L,S,=,0.379546401140499,0.324632392224147,1.61619637562053,1.94453447003076,1.26376769437865,12456.4952367387,12456.8921525912,12456.8921525912,12457.6919127343,0.8,12459.3420687337,12459.3420687337,12460.942100724,1.6,12463.0452426415,12463.864730501,0.819487859585934,66,Longer,Index,77,=,Ring
211,Spatial,1243,1,1,56,1600,5,5,2,l,l,-1600,0,-1600,0,L,S,=,0.293793539844063,0.341285805346806,1.53394454653891,1.83824023728141,1.27848919492752,12465.2786199888,12465.5922448537,12465.5922448537,12468.7921497425,3.2,12470.3623825289,12470.3623825289,12473.5622726608,3.2,12475.5452888369,12476.9606771094,1.41538827252225,77,Equals to,Ring,77,=,Ring
211,Spatial,1243,1,1,57,800,7.5,3.33333333333333,1,l,l,-1600,-400,-1600,-800,L,S,=,0.238974633040676,0.22103365118829,1.31995199591723,1.45977069809878,1.27075077265558,12478.3953243817,12478.6524044461,12478.6524044461,12480.2523713137,1.6,12481.59255956,12481.59255956,12483.992484531,2.4,12485.5954018569,12487.1046839592,1.50928210226994,78,Shorter,Middle,77,=,Ring
211,Spatial,1243,1,1,58,800,7.5,3.33333333333333,1,l,l,-1600,-400,-1600,-800,=,L,S,0.48516994114257,0.239131348028795,1.04788423608994,1.20827081158391,1.375967227716,12488.52870853,12489.0325834661,12489.0325834661,12490.6324261836,1.6,12491.7125335623,12491.7125335623,12494.1123930897,2.4,12495.4620639345,12496.9285013563,1.46643742188462,77,Shorter,Ring,78,L,Middle
211,Spatial,1243,1,1,59,800,1.66666666666667,5,1,m,m,-800,-400,-800,0,=,L,S,0.32651652361826,0.433162561951681,1.76980138591274,1.52730072806531,1.29831942667901,12498.4454822027,12498.7825802581,12498.7825802581,12501.1826662714,2.4,12502.9829811317,12502.9829811317,12504.5824918196,1.6,12506.2621763609,12507.8484918478,1.58631548692028,78,Longer,Middle,77,S,Ring
211,Spatial,1243,1,1,60,1200,10,7.5,1,m,m,-800,0,-800,400,S,=,L,0.441062872578198,0.492219671743401,1.49709859006511,1.53747768456477,1.36667898168343,12509.2954707314,12509.7528984163,12509.7528984163,12510.55270283,0.8,12512.0729406209,12512.0729406209,12513.6726110679,1.6,12515.3617172122,12515.4246491714,0.0629319592753745,77,Longer,Ring,66,S,Index
211,Spatial,1243,1,1,61,1200,6.66666666666667,7.5,1,l,l,-1600,0,-1600,-400,=,L,S,0.244484842169731,0.485149109712152,1.61683249985662,1.08638256818895,1.22095679361582,12516.9455291814,12517.2028742278,12517.2028742278,12519.6027590986,2.4,12521.2427848269,12521.2427848269,12522.8427494489,1.6,12524.0789262753,12524.5926298412,0.513703565909964,77,Shorter,Ring,77,S,Ring
211,Spatial,1243,1,1,62,1200,2.5,5,1,m,m,-800,0,-800,400,=,L,S,0.4731944894078,0.44710441781274,1.91023841487006,1.91962625316409,1.54527110729492,12525.9622211272,12526.4530692752,12526.4530692752,12529.6528702242,3.2,12531.5830943105,12531.5830943105,12533.9829965045,2.4,12536.0455868615,12536.5046144094,0.459027547871301,78,Longer,Middle,66,=,Index
211,Spatial,1243,1,1,63,400,5,5,2,r,r,0,400,0,400,S,=,L,0.405851168940563,0.211424396541359,1.71528696404794,1.00207541066263,1.31760023397362,12538.1956180434,12538.6131415453,12538.6131415453,12539.4129575079,0.8,12541.1632751271,12541.1632751271,12541.9630506687,0.8,12543.1122587252,12543.776498849,0.664240123802301,78,Equals to,Middle,78,=,Middle
211,Spatial,1243,1,1,64,800,15,5,1,m,m,-800,400,-800,0,L,S,=,0.36148028889611,0.49810764096094,1.01164419526499,1.31154229036455,1.07879138058399,12545.245632287,12545.6231957865,12545.6231957865,12546.4232629366,0.8,12547.4733471406,12547.4733471406,12549.073141417,1.6,12550.5456462098,12551.6324397086,1.08679349876547,78,Shorter,Middle,66,L,Index
211,Spatial,1243,1,1,65,1200,10,5,1,l,l,-1600,0,-1600,-400,S,=,L,0.275786336170934,0.242496864775826,1.04292230012412,1.35222516898467,1.40956577252688,12552.8623748553,12553.1535984694,12553.1535984694,12554.7534257883,1.6,12555.8235219133,12555.8235219133,12558.2233060524,2.4,12559.7290818802,12560.2244895406,0.495407660375349,66,Shorter,Index,77,L,Ring
211,Spatial,1243,1,1,66,1600,3.75,5,2,l,l,-1600,-400,-1600,0,=,L,S,0.432224191503279,0.459074300994904,1.2015286390897,1.08006368724075,1.0098017034666,12561.7957264102,12562.2435624498,12562.2435624498,12565.4435074387,3.2,12566.6836562907,12566.6836562907,12569.8835477058,3.2,12571.1124014818,12571.9444933132,0.832091831365688,78,Longer,Middle,66,=,Index
211,Spatial,1243,1,1,67,1600,10,20,2,r,r,0,1600,0,1600,=,L,S,0.248693466848285,0.373332543178322,1.31358087978762,1.47966605968011,1.55716644061925,12573.1124479981,12573.3738624121,12573.3738624121,12574.9734667739,1.6,12576.32383277,12576.32383277,12577.1236740759,0.8,12578.7625081657,12579.2165137727,0.454005606978171,66,Equals to,Index,77,S,Ring
211,Spatial,1243,1,1,68,800,15,5,1,r,r,0,1200,0,800,S,=,L,0.388591591176921,0.271513482390499,1.99000101518784,1.48814639375602,1.36527069220027,12580.9291416762,12581.3336406355,12581.3336406355,12582.1336144325,0.8,12584.1540325139,12584.1540325139,12585.7538280735,1.6,12587.3791768361,12588.0965843618,0.717407525748058,66,Shorter,Index,77,L,Ring
211,Spatial,1243,1,1,69,1600,6.66666666666667,5,2,r,r,0,1600,0,1600,S,=,L,0.448467086556646,0.385062012217994,1.86259163450027,1.68979938448365,1.62200515212042,12589.6125128,12590.0740698423,12590.0740698423,12592.4738892696,2.4,12594.3739599357,12594.3739599357,12597.5739466289,3.2,12599.4126034119,12600.6087337578,1.19613034593203,78,Equals to,Middle,77,L,Ring
211,Spatial,1243,1,1,70,800,3.75,3.33333333333333,1,r,r,0,1200,0,800,S,=,L,0.346723869070251,0.485614148761118,1.79766506038141,1.01715895289609,1.66503805801583,12602.3792406756,12602.7439926447,12602.7439926447,12605.9439154983,3.2,12607.7741592177,12607.7741592177,12610.1741711258,2.4,12611.3459363427,12612.3444375579,0.998501215195574,66,Shorter,Index,78,=,Middle
211,Spatial,1243,1,1,71,1200,6.66666666666667,7.5,1,m,m,-800,800,-800,400,=,L,S,0.480818489002597,0.23149161930305,1.66566865328298,1.19346611303707,1.81750944170266,12614.1626133392,12614.6540738973,12614.6540738973,12617.0540925423,2.4,12618.7444918119,12618.7444918119,12620.3439896676,1.6,12621.6960324886,12623.4404630834,1.74443059488658,77,Shorter,Ring,78,L,Middle
211,Spatial,1243,1,1,72,400,5,5,2,m,m,-800,0,-800,-400,L,S,=,0.449670082666682,0.320336315980038,1.19387015580783,1.2695369997418,1.4421684274928,12625.4126890483,12625.8742393539,12625.8742393539,12627.4740913745,1.6,12628.704317514,12628.704317514,12629.5041129452,0.8,12630.9126880859,12633.2804443871,2.36775630118427,78,Shorter,Middle,78,S,Middle
211,Spatial,1243,1,1,73,400,2.5,1.25,2,l,l,-1600,-800,-1600,-1200,S,=,L,0.316684277069267,0.297599936588304,1.89553455394627,1.01219804767391,1.12257333579303,12637.6960604287,12638.0244505055,12638.0244505055,12641.2243483366,3.2,12643.1546032198,12643.1546032198,12646.3544153969,3.2,12647.5127332548,12647.9525358079,0.439802553066329,66,Shorter,Index,77,L,Ring
211,Spatial,1243,1,1,74,1200,3.33333333333333,7.5,1,r,r,0,800,0,1200,L,S,=,0.435508484907387,0.278047616798657,1.85295580845679,1.67632139528507,1.11329561389543,12649.2294561901,12649.6846928004,12649.6846928004,12652.0846511347,2.4,12653.964766341,12653.964766341,12655.5646584618,1.6,12657.3794475926,NaN,NaN,66,Longer,Index,999,Missed,Missed
211,Spatial,1243,1,1,75,400,1.25,1.25,2,l,l,-1600,-1200,-1600,-1200,=,L,S,0.365589391912031,0.308430980866183,1.0898430500519,1.84382611470922,1.18246928253879,12661.5461505098,12661.9247354414,12661.9247354414,12665.1246133828,3.2,12666.2549197868,12666.2549197868,12669.4547800841,3.2,12671.4462635617,12671.8883629882,0.442099426554705,66,Equals to,Index,66,=,Index
211,Spatial,1243,1,1,76,400,3.33333333333333,1.25,2,l,l,-1600,-800,-1600,-1200,L,S,=,0.247248005021245,0.432268531412214,1.61068977023015,1.31280947396295,1.36001827298943,12673.2295716786,12673.4951308485,12673.4951308485,12675.8949637494,2.4,12677.534961568,12677.534961568,12680.7349174642,3.2,12682.1958111659,12682.7523280568,0.556516890843341,78,Shorter,Middle,77,=,Ring
211,Spatial,1243,1,1,77,800,5,5,1,l,l,-1600,-400,-1600,-800,=,L,S,0.386190011990452,0.490561953668985,1.53406022842662,1.20065746321243,1.38457970040563,12684.2795987543,12684.6849953163,12684.6849953163,12687.0848651094,2.4,12688.645230682,12688.645230682,12690.2450474145,1.6,12691.5963654487,12693.4003417178,1.80397626909689,77,Shorter,Ring,66,=,Index
211,Spatial,1243,1,1,78,1600,7.5,20,2,m,m,-800,400,-800,800,L,S,=,0.394470334356789,0.491221439379236,1.21009549038657,1.32820007380998,1.48644797617421,12694.9297194398,12695.3352969339,12695.3352969339,12696.9351508794,1.6,12698.1752092653,12698.1752092653,12698.9750868217,0.8,12700.4629804645,12701.8402873484,1.37730688388729,66,Longer,Index,78,S,Middle
211,Spatial,1243,1,1,79,1600,7.5,20,2,r,r,0,1200,0,1600,=,L,S,0.303637481486481,0.234610148070153,1.05456317799242,1.26697852905052,1.55798201186137,12703.4797137937,12703.795531658,12703.795531658,12705.3951000901,1.6,12706.4855404864,12706.4855404864,12707.2853339929,0.8,12708.6964322553,12708.7283821465,0.0319498912158451,78,Longer,Middle,78,L,Middle
211,Spatial,1243,1,1,80,1200,10,7.5,1,m,m,-800,0,-800,400,S,=,L,0.29432594289732,0.456991544435531,1.33558391201205,1.48551641664272,1.62241115889027,12710.4297354799,12710.7355183511,12710.7355183511,12711.5354616719,0.8,12712.8955829221,12712.8955829221,12714.4954663813,1.6,12716.1297215571,12716.6481766282,0.518455071101926,77,Longer,Ring,77,L,Ring
211,Spatial,1243,1,1,81,800,1.25,3.33333333333333,1,l,l,-1600,-1200,-1600,-800,=,L,S,0.280490355853469,0.477409371245215,1.88380686367978,1.55233112377879,1.57069045029804,12718.4131022407,12718.7055663944,12718.7055663944,12721.9055043257,3.2,12723.8154290528,12723.8154290528,12726.2154332617,2.4,12727.9131404161,12729.0241566769,1.11101626078926,78,Longer,Middle,66,=,Index
211,Spatial,1243,1,1,82,1600,5,5,2,l,l,-1600,-400,-1600,0,S,=,L,0.228320284607801,0.451808240809038,1.33769089427351,1.51458085366164,1.18481139894791,12730.7465189825,12730.9858888769,12730.9858888769,12733.3857747101,2.4,12734.7456415646,12734.7456415646,12737.9455438869,3.2,12739.613175576,12741.3922090779,1.7790335019472,77,Longer,Ring,77,L,Ring
211,Spatial,1243,1,1,83,1600,3.75,5,2,l,l,-1600,-400,-1600,0,L,S,=,0.450330097702443,0.213152716396317,1.62714610635472,1.31012503028743,1.32336279392608,12742.7298892721,12743.1958156315,12743.1958156315,12746.3957169914,3.2,12748.0559224199,12748.0559224199,12751.2559229075,3.2,12752.7132932155,12754.0322835424,1.31899032685033,66,Longer,Index,77,=,Ring
211,Spatial,1243,1,1,84,1200,20,7.5,1,r,r,0,1600,0,1200,S,=,L,0.312422258967083,0.421279365076759,1.17760071507876,1.44910439097889,1.86731841842967,12755.4966097693,12755.8261887365,12755.8261887365,12756.6260505737,0.8,12757.8362336744,12757.8362336744,12759.4360504069,1.6,12761.0299298215,12761.4403123067,0.410382485262744,66,Shorter,Index,78,=,Middle
211,Spatial,1243,1,1,85,800,2.5,3.33333333333333,1,m,m,-800,-400,-800,0,=,L,S,0.372132187529486,0.463277792040318,1.71959635711335,1.4864104621936,1.62187319736183,12763.4633192309,12763.8461133995,12763.8461133995,12765.4459378312,1.6,12767.1961447739,12767.1961447739,12769.5960229078,2.4,12771.2300500593,12772.0242657494,0.794215690166311,78,Longer,Middle,78,L,Middle
211,Spatial,1243,1,1,86,1200,10,7.5,1,r,r,0,800,0,1200,S,=,L,0.25820660567729,0.324340619691332,1.44572748208439,1.99124176182448,1.13220778757416,12773.7966936268,12774.0664286704,12774.0664286704,12774.8662459162,0.8,12776.3365397191,12776.3365397191,12777.9360529733,1.6,12780.0633483597,12781.0962757507,1.03292739106291,77,Longer,Ring,66,S,Index
211,Spatial,1243,1,1,87,1200,2.5,5,1,m,m,-800,0,-800,400,S,=,L,0.477432954836482,0.289901006684036,1.46132583549235,1.66122610152253,1.80241188300433,12782.3800689852,12782.8766248341,12782.8766248341,12786.076430916,3.2,12787.5765390518,12787.5765390518,12789.9764159025,2.4,12791.7968437163,12792.2082730226,0.411429306377613,77,Longer,Ring,78,=,Middle
211,Spatial,1243,1,1,88,1200,3.33333333333333,7.5,1,l,l,-1600,-800,-1600,-400,S,=,L,0.467643656622188,0.486003657522871,1.09695720871842,1.44772363625108,1.55565169223368,12794.1634615385,12794.6466746097,12794.6466746097,12797.0465110394,2.4,12798.1765101155,12798.1765101155,12799.7764346373,1.6,12801.3801334663,12802.8720457386,1.49191227232768,77,Longer,Ring,78,=,Middle
211,Spatial,1243,1,1,89,800,5,5,1,m,m,-800,400,-800,0,=,L,S,0.363096752524726,0.229178540303173,1.94751045879887,1.70931381829191,1.14568055712524,12804.5801513028,12804.9566657813,12804.9566657813,12807.3565907522,2.4,12809.3469137993,12809.3469137993,12810.9467154542,1.6,12812.7968296467,12813.2401770568,0.443347410104252,77,Shorter,Ring,77,S,Ring
211,Spatial,1243,1,1,90,1200,6.66666666666667,7.5,1,m,m,-800,800,-800,400,L,S,=,0.474898881083381,0.491446321840391,1.79449941090788,1.75384046630794,1.11640859203363,12814.5468675013,12815.03679142,12815.03679142,12817.4366843108,2.4,12819.2569668214,12819.2569668214,12820.8568223709,1.6,12822.7632369132,12823.1441229799,0.380886066690437,78,Shorter,Middle,78,S,Middle
211,Spatial,1243,1,1,91,800,15,5,1,m,m,-800,400,-800,0,=,L,S,0.467804416090495,0.334276247316156,1.79325249984492,1.19217228287581,1.18655750484521,12824.413570611,12824.897149396,12824.897149396,12825.6966416698,0.8,12827.526974572,12827.526974572,12829.1268070238,1.6,12830.463647974,12831.4721229876,1.00847501359567,77,Shorter,Ring,78,L,Middle
211,Spatial,1243,1,1,92,1600,6.66666666666667,5,2,m,m,-800,800,-800,800,S,=,L,0.463001092955367,0.20262472302998,1.46467586463025,1.0716470546261,1.42171647576522,12832.8136515171,12833.2870377956,12833.2870377956,12835.686995809,2.4,12837.1770644606,12837.1770644606,12840.3769539509,3.2,12841.596988251,12842.0483723813,0.451384130334191,78,Equals to,Middle,77,L,Ring
211,Spatial,1243,1,1,93,1200,20,7.5,1,l,l,-1600,0,-1600,-400,L,S,=,0.418068120749044,0.479974824293432,1.72629249002803,1.64329718275313,1.33690017419813,12843.6136773096,12844.0473098609,12844.0473098609,12844.8471354475,0.8,12846.6071624462,12846.6071624462,12848.2071379755,1.6,12850.013739354,12850.5440784527,0.530339098670083,78,Shorter,Middle,66,L,Index
211,Spatial,1243,1,1,94,800,1.25,3.33333333333333,1,r,r,0,400,0,800,=,L,S,0.25183108548972,0.40613405532117,1.98474064513358,1.0109925307301,1.57277656350905,12852.0304334799,12852.2972716855,12852.2972716855,12855.4973141982,3.2,12857.5174355381,12857.5174355381,12859.9172495117,2.4,12861.0803861296,12861.5761332635,0.495747133958503,78,Longer,Middle,66,=,Index
211,Spatial,1243,1,1,95,1200,10,5,1,m,m,-800,800,-800,400,L,S,=,0.314046165003296,0.457549603458511,1.2585427915791,1.4121742327506,1.24116591856518,12863.2971183681,12863.6273594697,12863.6273594697,12865.2271957711,1.6,12866.5175362698,12866.5175362698,12868.9173970805,2.4,12870.4805114199,12871.1201741824,0.639662762519947,78,Shorter,Middle,66,L,Index
211,Spatial,1243,1,1,96,800,2.5,3.33333333333333,1,r,r,0,400,0,800,L,S,=,0.389881198757564,0.444251326809173,1.66391041836021,1.32624985340734,1.75297395426812,12872.5138348873,12872.9176399529,12872.9176399529,12874.5174444949,1.6,12876.2076872134,12876.2076872134,12878.6075801041,2.4,12880.0804923149,12880.4721371029,0.391644788000121,66,Longer,Index,77,=,Ring
