Subject,Task,SequenceOrder,ListNo,RunNo,TrialNo,Aud_Probe_Dist,Aud_Standard_Vel,Aud_Probe_Vel,Main_Control,Aud_Std_StartCode,Aud_Probe_StartCode,Aud_Std_StartPt,Aud_Std_EndPt,Aud_Probe_StartPt,Aud_Probe_EndPt,RespIndex,RespMiddle,RespRing,ISI_Cross_Std,ISI_Cross_Probe,ISI_Std_Probe,ISI_Probe_Response,ITI,TrialOnset,StdOnset,StdOnsetByStop,StdOffset,StdDur,ProbeOnset,ProbeOnsetByStop,ProbeOffset,ProbeDur,RespWinStart,RespTime,RT,CorrectKC,CorrectResponse,CorrectFinger,SubjRespKC,SubjResponse,SubjRespFinger
207,Spatial,4132,4,1,1,800,1.66666666666667,5,1,m,m,-800,-400,-800,0,L,S,=,0.433112568490606,0.357382770095002,1.10527876114688,1.40190093391381,1.98015973154234,851126.744450208,851127.188511794,851127.188511794,851129.588495526,2.4,851130.728830652,851130.728830652,851132.328643781,1.6,851133.877825869,851134.342916326,0.465090457466431,66,Longer,Index,78,S,Middle
207,Spatial,4132,4,1,2,800,2.5,3.33333333333333,1,r,r,0,400,0,800,L,S,=,0.427117879889573,0.450705059469013,1.11789576469809,1.85255766597138,1.91586239321825,851136.477857454,851136.918943282,851136.918943282,851138.518754166,1.6,851139.659070364,851139.659070364,851142.058665926,2.4,851144.061212201,851144.550991935,0.489779734169133,66,Longer,Index,66,L,Index
207,Spatial,4132,4,1,3,800,1.25,3.33333333333333,1,m,m,-800,-400,-800,0,L,S,=,0.423610388302023,0.203501614856253,1.28075156605261,1.2062068862894,1.85637238523722,851146.611287285,851147.049252031,851147.049252031,851150.24875193,3.2,851151.559250302,851151.559250302,851153.959166024,2.4,851155.311274036,851155.719087293,0.407813257304952,66,Longer,Index,66,L,Index
207,Spatial,4132,4,1,4,800,5,5,1,l,l,-1600,-1200,-1600,-800,=,L,S,0.444244129236467,0.432083761849564,1.14853992620133,1.11335530102245,1.09620290643043,851157.711333191,851158.169117076,851158.169117076,851158.968881187,0.8,851160.139373612,851160.139373612,851161.738900266,1.6,851163.011322381,851163.430974509,0.419652128941379,78,Longer,Middle,78,L,Middle
207,Spatial,4132,4,1,5,800,15,5,1,m,m,-800,400,-800,0,S,=,L,0.436592059469336,0.381507802723291,1.05268732872531,1.04619017449301,1.59955505577918,851164.661364774,851165.109243902,851165.109243902,851165.909093988,0.8,851166.99941803,851166.99941803,851168.59921929,1.6,851169.79468842,851170.206984241,0.412295821704902,66,Shorter,Index,77,L,Ring
207,Spatial,4132,4,1,6,1200,3.33333333333333,7.5,1,m,m,-800,0,-800,400,L,S,=,0.238570580156133,0.46836265224035,1.52914507892043,1.57096163139203,1.02305797311394,851171.961401121,851172.219513443,851172.219513443,851174.619414729,2.4,851176.169480224,851176.169480224,851177.769317735,1.6,851179.478086828,851181.487063505,2.00897667743266,66,Longer,Index,77,=,Ring
207,Spatial,4132,4,1,7,1200,5,5,1,l,l,-1600,-800,-1600,-400,S,=,L,0.484452700020507,0.433768700461942,1.13196305812572,1.43317909551665,1.41185790373219,851182.661466789,851183.159313372,851183.159313372,851184.759334381,1.6,851185.929659026,851185.929659026,851188.329459901,2.4,851189.911469596,851192.166906787,2.25543719041161,77,Longer,Ring,66,S,Index
207,Spatial,4132,4,1,8,1600,7.5,20,2,r,r,0,1200,0,1600,L,S,=,0.496580081224279,0.28751675933249,1.55052671070197,1.24418062913912,1.17044832098125,851193.711579199,851194.219837453,851194.219837453,851195.819636467,1.6,851197.389733471,851197.389733471,851198.189654455,0.8,851199.594849398,851200.718948065,1.12409866706003,66,Longer,Index,78,S,Middle
207,Spatial,4132,4,1,9,800,15,5,1,m,m,-800,400,-800,0,S,=,L,0.31371275068802,0.497059701113611,1.15304500336934,1.29250467332497,1.69076153582704,851202.028220618,851202.359804904,851202.359804904,851203.159516404,0.8,851204.349752578,851204.349752578,851205.949605488,1.6,851207.378227627,851208.111159445,0.732931817765348,66,Shorter,Index,78,=,Middle
207,Spatial,4132,4,1,10,800,2.5,3.33333333333333,1,r,r,0,400,0,800,=,L,S,0.301557689119029,0.275477081874998,1.09228906768119,1.36373829477408,1.94157358588498,851209.944966443,851210.259885073,851210.259885073,851211.859676709,1.6,851212.9901321,851212.9901321,851215.389928484,2.4,851216.911646037,851217.390901867,0.47925582958851,78,Longer,Middle,66,=,Index
207,Spatial,4132,4,1,11,400,1.25,1.25,2,r,r,0,400,0,400,S,=,L,0.309346235643465,0.213483259244566,1.08936884309164,1.1152129029913,1.50410260966114,851219.49499084,851219.820141766,851219.820141766,851223.020009624,3.2,851224.13011495,851224.13011495,851227.329964202,3.2,851228.595023914,851229.022873493,0.427849578671157,78,Equals to,Middle,78,=,Middle
207,Spatial,4132,4,1,12,1200,20,7.5,1,l,l,-1600,0,-1600,-400,=,L,S,0.419061247347275,0.403533935997136,1.43471627380862,1.67373697847572,1.08816660776874,851230.678405127,851231.110370879,851231.110370879,851231.910172524,0.8,851233.380110699,851233.380110699,851234.97997227,1.6,851236.795064399,851239.502977202,2.70791280223057,77,Shorter,Ring,77,S,Ring
207,Spatial,4132,4,1,13,1600,7.5,20,2,m,m,-800,400,-800,800,L,S,=,0.412315104462147,0.290420594577231,1.6913379938156,1.08434745928359,1.21995939735895,851240.728453424,851241.160410193,851241.160410193,851242.760177769,1.6,851244.480332405,851244.480332405,851245.280203343,0.8,851246.511758511,851247.206822557,0.695064046536572,66,Longer,Index,77,=,Ring
207,Spatial,4132,4,1,14,800,3.75,3.33333333333333,1,r,r,0,1200,0,800,=,L,S,0.302152962906971,0.41071126195477,1.0517778177268,1.61209372810972,1.66506191517881,851248.578460915,851248.900493967,851248.900493967,851252.100400322,3.2,851253.180550133,851253.180550133,851255.580334006,2.4,851257.345143653,851257.910967542,0.565823888173327,77,Shorter,Ring,66,=,Index
207,Spatial,4132,4,1,15,1200,5,5,1,r,r,0,1600,0,1200,=,L,S,0.454225681111092,0.320987767256298,1.2527410071193,1.49593966196919,1.29880331808503,851259.728515659,851260.200798825,851260.200798825,851263.400286213,3.2,851264.680775176,851264.680775176,851267.080322618,2.4,851268.728583453,851269.158857868,0.430274415295571,77,Shorter,Ring,66,=,Index
207,Spatial,4132,4,1,16,800,15,5,1,r,r,0,1200,0,800,=,L,S,0.325120267390265,0.375380187170016,1.72006829563773,1.62855880004917,1.70707087606793,851270.611913811,851270.950478425,851270.950478425,851271.750426676,0.8,851273.50101835,851273.50101835,851275.100741655,1.6,851276.878604088,851279.398888871,2.52028478228021,77,Shorter,Ring,77,S,Ring
207,Spatial,4132,4,1,17,400,3.33333333333333,1.25,2,r,r,0,800,0,400,L,S,=,0.374633174757823,0.433024319462589,1.16626059896498,1.78742571293383,1.49428098167487,851281.245295681,851281.630841726,851281.630841726,851284.030717669,2.4,851285.230987242,851285.230987242,851288.430776504,3.2,851290.362034712,851291.230728069,0.86869335710071,78,Shorter,Middle,77,=,Ring
207,Spatial,4132,4,1,18,1600,5,5,2,m,m,-800,400,-800,800,L,S,=,0.452694969087242,0.217153791759541,1.77943226172786,1.29285322026687,1.1931899088302,851292.878693592,851293.351080377,851293.351080377,851295.750890876,2.4,851297.560828006,851297.560828006,851300.760883212,3.2,851302.195378914,851302.558835861,0.363456947845407,66,Longer,Index,66,L,Index
207,Spatial,4132,4,1,19,800,5,5,1,l,l,-1600,-400,-1600,-800,=,L,S,0.26393808142865,0.239545940665602,1.89191624844593,1.47360682910604,1.05541381188551,851303.895416672,851304.171372313,851304.171372313,851306.570860086,2.4,851308.481379502,851308.481379502,851310.081236261,1.6,851311.695474053,851312.326799883,0.631325829657726,77,Shorter,Ring,77,S,Ring
207,Spatial,4132,4,1,20,800,5,5,1,m,m,-800,-400,-800,0,S,=,L,0.219844239191071,0.314879290249077,1.02089663776948,1.55375847409898,1.11906361561046,851313.528797259,851313.761314085,851313.761314085,851314.561074988,0.8,851315.611203199,851315.611203199,851317.211269121,1.6,851318.912136864,851319.350877666,0.438740801415406,77,Longer,Ring,77,L,Ring
207,Spatial,4132,4,1,21,800,5,5,1,l,l,-1600,-400,-1600,-800,=,L,S,0.462609993650857,0.387385441576607,1.50637518428345,1.39350755971481,1.39343841332939,851320.61218168,851321.091424001,851321.091424001,851323.491204986,2.4,851325.031655408,851325.031655408,851326.631171475,1.6,851328.178864034,851330.359056188,2.18019215390086,77,Shorter,Ring,66,=,Index
207,Spatial,4132,4,1,22,400,5,5,2,m,m,-800,0,-800,-400,S,=,L,0.452767348201668,0.371019174222475,1.06002796838175,1.39991383824464,1.45680678741727,851331.895557825,851332.361455751,851332.361455751,851333.961219477,1.6,851335.051570466,851335.051570466,851335.851451028,0.8,851337.395586537,851338.286866789,0.891280252835713,66,Shorter,Index,66,S,Index
207,Spatial,4132,4,1,23,1200,10,7.5,1,l,l,-1600,-800,-1600,-400,=,L,S,0.317486764922075,0.229167690010907,1.19576359052807,1.25741103781088,1.75777916076475,851339.895638988,851340.231791171,851340.231791171,851341.031534431,0.8,851342.251507332,851342.251507332,851343.851593465,1.6,851345.24565651,851345.702890008,0.457233497523703,78,Longer,Middle,78,L,Middle
207,Spatial,4132,4,1,24,1200,10,5,1,r,r,0,1600,0,1200,L,S,=,0.265873450851648,0.482992019844994,1.16457148013404,1.66478886407023,1.88180470001169,851347.595656215,851347.881659049,851347.881659049,851349.481544359,1.6,851350.671896664,851350.671896664,851353.071655514,2.4,851354.878972369,851355.390875561,0.511903192265891,78,Shorter,Middle,66,L,Index
207,Spatial,4132,4,1,25,1600,5,5,2,l,l,-1600,0,-1600,0,=,L,S,0.34600457614919,0.222917342459723,1.99031400836665,1.29977241882114,1.40172900202526,851359.729049474,851360.092011389,851360.092011389,851363.291650516,3.2,851365.322195379,851365.322195379,851368.521996189,3.2,851369.979050998,851370.398900099,0.419849101221189,66,Equals to,Index,78,L,Middle
207,Spatial,4132,4,1,26,800,3.75,3.33333333333333,1,m,m,-800,400,-800,0,S,=,L,0.45759707464841,0.333452388795257,1.01345844279572,1.93218673843945,1.82787074781891,851371.945802773,851372.422307371,851372.422307371,851375.622083159,3.2,851376.672153947,851376.672153947,851379.072009038,2.4,851381.162460152,851381.798957971,0.636497818981297,66,Shorter,Index,66,S,Index
207,Spatial,4132,4,1,27,1200,20,7.5,1,l,l,-1600,0,-1600,-400,=,L,S,0.367819807702367,0.331477085600053,1.77941412046701,1.60786817453093,1.79874433534381,851383.762517127,851384.14211743,851384.14211743,851384.942062794,0.8,851386.751989979,851386.751989979,851388.35201163,1.6,851390.095886542,851391.102715941,1.00682939856779,77,Shorter,Ring,78,L,Middle
207,Spatial,4132,4,1,28,400,10,5,2,l,l,-1600,-800,-1600,-1200,S,=,L,0.41881582829052,0.497158206915713,1.65920218573555,1.45889988659462,1.1156406587428,851393.029222803,851393.462183361,851393.462183361,851394.262195452,0.8,851395.952624268,851395.952624268,851396.752106715,0.8,851398.345905237,851398.766749466,0.420844228588976,66,Shorter,Index,78,=,Middle
207,Spatial,4132,4,1,29,1200,6.66666666666667,7.5,1,r,r,0,1600,0,1200,=,L,S,0.361953464490643,0.405453044874109,1.87182326941662,1.48188689069106,1.2965363350016,851400.029254562,851400.402479571,851400.402479571,851402.802348135,2.4,851404.702631085,851404.702631085,851406.302454481,1.6,851407.929314625,851408.38285744,0.453542815172113,77,Shorter,Ring,66,=,Index
207,Spatial,4132,4,1,30,800,7.5,3.33333333333333,1,l,l,-1600,-400,-1600,-800,S,=,L,0.213201310446481,0.340538692044811,1.29460900510973,1.09473212885802,1.42499406098568,851409.82929139,851410.062475804,851410.062475804,851411.662468262,1.6,851412.992646866,851412.992646866,851415.392539811,2.4,851416.645980401,851417.062841233,0.416860831901431,66,Shorter,Index,77,L,Ring
207,Spatial,4132,4,1,31,1200,5,5,1,m,m,-800,800,-800,400,L,S,=,0.38087048627811,0.361151214403926,1.96930820718825,1.22967347494633,1.20710293196904,851418.629368401,851419.0228263,851419.0228263,851422.222465426,3.2,851424.232987762,851424.232987762,851426.632790242,2.4,851428.012738721,851428.51082594,0.498087219079025,78,Shorter,Middle,77,=,Ring
207,Spatial,4132,4,1,32,1600,20,20,2,m,m,-800,800,-800,800,L,S,=,0.382784903232109,0.277665738756441,1.38915841036468,1.90309556102677,1.57129077307361,851429.862743966,851430.26285666,851430.26285666,851431.062644832,0.8,851432.483006289,851432.483006289,851433.282770079,0.8,851435.329423721,851435.862944146,0.533520424971357,77,Equals to,Ring,77,=,Ring
207,Spatial,4132,4,1,33,1600,3.75,5,2,l,l,-1600,-400,-1600,0,L,S,=,0.262063894769368,0.365662779431461,1.42501511564713,1.49330147033442,1.10888641570887,851437.579477857,851437.852971985,851437.852971985,851441.053004736,3.2,851442.503083031,851442.503083031,851445.702965326,3.2,851447.346172795,851447.767037546,0.420864750747569,66,Longer,Index,66,L,Index
207,Spatial,4132,4,1,34,800,7.5,3.33333333333333,1,m,m,-800,400,-800,0,S,=,L,0.272247833962291,0.412516988098798,1.40274575480661,1.57388930090635,1.42097040564247,851449.012856455,851449.303379067,851449.303379067,851450.902838352,1.6,851452.333225188,851452.333225188,851454.733011948,2.4,851456.446188858,851457.143013786,0.696824927814305,66,Shorter,Index,66,S,Index
207,Spatial,4132,4,1,35,1200,6.66666666666667,7.5,1,m,m,-800,800,-800,400,=,L,S,0.292781959914961,0.317076918025439,1.94715742317943,1.16420723702362,1.71046896019644,851458.712921161,851459.023441277,851459.023441277,851461.423041972,2.4,851463.413322352,851463.413322352,851465.013138369,1.6,851466.329612956,851467.550806191,1.22119323536754,77,Shorter,Ring,66,=,Index
207,Spatial,4132,4,1,36,1600,5,5,2,l,l,-1600,-400,-1600,0,S,=,L,0.283296579984228,0.236292203348934,1.00131542802936,1.41259252003168,1.07027648587468,851469.412942237,851469.713539311,851469.713539311,851472.113357509,2.4,851473.143548848,851473.143548848,851476.343478942,3.2,851477.913005917,851478.334818325,0.421812408603728,77,Longer,Ring,77,L,Ring
207,Spatial,4132,4,1,37,1200,10,7.5,1,r,r,0,800,0,1200,L,S,=,0.353211468598107,0.320641496818522,1.7345051408241,1.52661878667076,1.40934457002847,851479.546381371,851479.913553169,851479.913553169,851480.713404539,0.8,851482.483702429,851482.483702429,851484.083436962,1.6,851485.76305581,851486.198805719,0.435749909025617,66,Longer,Index,77,=,Ring
207,Spatial,4132,4,1,38,1200,2.5,5,1,l,l,-1600,-800,-1600,-400,S,=,L,0.370429244129836,0.229682988615116,1.82711456252524,1.22573871556167,1.97260308326854,851487.763060244,851488.15365539,851488.15365539,851491.353608902,3.2,851493.203539115,851493.203539115,851495.603463499,2.4,851496.963047156,851497.790781053,0.827733897371218,77,Longer,Ring,78,=,Middle
207,Spatial,4132,4,1,39,400,1.66666666666667,1.25,2,r,r,0,400,0,400,S,=,L,0.336408665082379,0.248164695106236,1.02187889391856,1.27518207992572,1.17438398074664,851499.91309927,851500.263965031,851500.263965031,851502.66379959,2.4,851503.713789215,851503.713789215,851506.913691079,3.2,851508.329784944,851508.710733934,0.380948989652097,78,Equals to,Middle,77,L,Ring
207,Spatial,4132,4,1,40,1200,5,5,1,m,m,-800,800,-800,400,L,S,=,0.339905990607747,0.365767465944794,1.69443209597333,1.82941877621369,1.3602065361128,851510.029843875,851510.384010046,851510.384010046,851513.583855127,3.2,851515.303926034,851515.303926034,851517.703941526,2.4,851519.67984649,NaN,NaN,78,Shorter,Middle,999,Missed,Missed
207,Spatial,4132,4,1,41,1200,3.33333333333333,7.5,1,r,r,0,800,0,1200,S,=,L,0.470585034159661,0.419050142979802,1.76015689170034,1.49229134195437,1.87529562582406,851524.096559485,851524.584260335,851524.584260335,851526.984066343,2.4,851528.774098038,851528.774098038,851530.373952872,1.6,851532.013294965,851532.486776708,0.473481742781587,77,Longer,Ring,78,=,Middle
207,Spatial,4132,4,1,42,800,3.75,3.33333333333333,1,l,l,-1600,-400,-1600,-800,L,S,=,0.35070401694551,0.205572494823175,1.67952355008761,1.20537235310214,1.12362545066015,851534.513288735,851534.874332897,851534.874332897,851538.074331322,3.2,851539.794299252,851539.794299252,851542.194103656,2.4,851543.546635767,851543.974772784,0.428137017064728,78,Shorter,Middle,77,=,Ring
207,Spatial,4132,4,1,43,1600,10,20,2,r,r,0,1600,0,1600,S,=,L,0.342070280738741,0.29283655607212,1.87283251429825,1.6936103826238,1.40398089894136,851545.246682187,851545.604571904,851545.604571904,851547.204432513,1.6,851549.104513358,851549.104513358,851549.904307304,0.8,851551.746718429,851552.822664587,1.07594615721609,78,Equals to,Middle,66,S,Index
207,Spatial,4132,4,1,44,1200,5,5,1,m,m,-800,0,-800,400,S,=,L,0.338121387659557,0.326338744367129,1.40014086589157,1.89252464341834,1.57808401810886,851554.380069351,851554.73479532,851554.73479532,851556.334579257,1.6,851557.764571507,851557.764571507,851560.164504231,2.4,851562.196735264,851562.55875919,0.362023926107213,77,Longer,Ring,77,L,Ring
207,Spatial,4132,4,1,45,800,1.66666666666667,5,1,m,m,-800,-400,-800,0,L,S,=,0.311648095924553,0.413395936108885,1.20811338859425,1.19387966242267,1.51898122910622,851564.28014492,851564.604704716,851564.604704716,851567.004547616,2.4,851568.234976734,851568.234976734,851569.834463929,1.6,851571.180161557,851571.774670063,0.5945085065905,66,Longer,Index,66,L,Index
207,Spatial,4132,4,1,46,800,5,5,1,l,l,-1600,-1200,-1600,-800,L,S,=,0.339372332130461,0.319715665953713,1.35454240117592,1.47210828041184,1.63166730180097,851573.446832387,851573.804799738,851573.804799738,851574.604579889,0.8,851575.984740062,851575.984740062,851577.584599708,1.6,851579.196820276,851579.55876721,0.361946933553554,66,Longer,Index,77,=,Ring
207,Spatial,4132,4,1,47,1200,6.66666666666667,7.5,1,r,r,0,1600,0,1200,=,L,S,0.280172146535966,0.435024628089527,1.89417857240728,1.56944830503797,1.04232582388467,851581.346853848,851581.645167454,851581.645167454,851584.044658434,2.4,851585.975050242,851585.975050242,851587.574918229,1.6,851589.296905685,851589.926777298,0.629871612996794,77,Shorter,Ring,66,=,Index
207,Spatial,4132,4,1,48,800,1.25,3.33333333333333,1,m,m,-800,-400,-800,0,=,L,S,0.435460102654065,0.393345073369616,1.65854721971646,1.77202486543796,1.28279955247978,851591.130277952,851591.585146069,851591.585146069,851594.784939502,3.2,851596.475186102,851596.475186102,851598.87503221,2.4,851600.796961942,851601.206801384,0.409839441883378,78,Longer,Middle,78,L,Middle
207,Spatial,4132,4,1,49,1200,5,5,1,m,m,-800,0,-800,400,L,S,=,0.229728270746428,0.362815976329939,1.14778177681652,1.27259984075087,1.89659403009081,851643.247172372,851643.495736348,851643.495736348,851645.095595994,1.6,851646.275934468,851646.275934468,851648.6757979,2.4,851650.097173768,851650.638724505,0.541550736874342,66,Longer,Index,66,L,Index
207,Spatial,4132,4,1,50,1200,5,5,1,m,m,-800,800,-800,400,=,L,S,0.477609250850089,0.2424049913742,1.60291494912944,1.2481204322673,1.18933536149034,851652.69723395,851653.186076908,851653.186076908,851656.385616907,3.2,851658.015978463,851658.015978463,851660.415743409,2.4,851661.813933964,851662.294834545,0.480900580645539,77,Shorter,Ring,66,=,Index
207,Spatial,4132,4,1,51,800,5,5,1,l,l,-1600,-1200,-1600,-800,L,S,=,0.20682380205188,0.311052069949249,1.27466121749605,1.52503286587759,1.03025149054088,851663.630630032,851663.856035964,851663.856035964,851664.655925509,0.8,851665.956326642,851665.956326642,851667.555778549,1.6,851669.214002753,851669.718712596,0.504709843196906,66,Longer,Index,77,=,Ring
207,Spatial,4132,4,1,52,1200,6.66666666666667,7.5,1,r,r,0,1600,0,1200,=,L,S,0.392635555069109,0.473291689978274,1.52254187223088,1.69635086682881,1.60741185473187,851670.897330576,851671.306308629,851671.306308629,851673.705902908,2.4,851675.25639924,851675.25639924,851676.856159437,1.6,851678.697347193,851679.214916709,0.517569515388459,77,Shorter,Ring,66,=,Index
207,Spatial,4132,4,1,53,1600,15,20,2,m,m,-800,400,-800,800,L,S,=,0.357571135857798,0.279419691248424,1.72122030149489,1.75852646480132,1.34391182197587,851680.964060889,851681.336474269,851681.336474269,851682.13622234,0.8,851683.886371949,851683.886371949,851684.686261173,0.8,851686.580711019,851686.958686175,0.377975156530738,66,Longer,Index,77,=,Ring
207,Spatial,4132,4,1,54,1200,10,5,1,r,r,0,1600,0,1200,L,S,=,0.224681354813176,0.425507470454084,1.38268231162529,1.03106406334126,1.73240046100748,851688.447444476,851688.686581369,851688.686581369,851690.286149085,1.6,851691.696610918,851691.696610918,851694.096156435,2.4,851695.280756156,851695.758668467,0.477912311442196,78,Shorter,Middle,66,L,Index
207,Spatial,4132,4,1,55,800,2.5,3.33333333333333,1,m,m,-800,-400,-800,0,L,S,=,0.279163600488749,0.431307945172161,1.49316499137494,1.36247604086996,1.42546782772557,851697.647458014,851697.946597364,851697.946597364,851699.54640889,1.6,851701.076759186,851701.076759186,851703.476564873,2.4,851704.997520544,851705.726914217,0.729393672198057,66,Longer,Index,66,L,Index
207,Spatial,4132,4,1,56,1200,2.5,5,1,l,l,-1600,-800,-1600,-400,S,=,L,0.210661720852088,0.448955804572774,1.5189345957298,1.5622087848473,1.61482992242725,851707.314167348,851707.536710122,851707.536710122,851710.736552638,3.2,851712.276737115,851712.276737115,851714.676701599,2.4,851716.397551769,851716.918641122,0.521089353249408,77,Longer,Ring,77,L,Ring
207,Spatial,4132,4,1,57,400,1.66666666666667,1.25,2,l,l,-1600,-1200,-1600,-1200,=,L,S,0.351923792624662,0.380109052231829,1.21600823893218,1.22385437323409,1.29390344822971,851718.680948765,851719.046485757,851719.046485757,851721.446553218,2.4,851722.696858898,851722.696858898,851725.89680439,3.2,851727.264304401,851727.670901251,0.406596850254573,66,Equals to,Index,66,=,Index
207,Spatial,4132,4,1,58,1200,10,7.5,1,r,r,0,800,0,1200,=,L,S,0.333692644147623,0.224057260138375,1.84061363586222,1.6378031406874,1.59469196337277,851729.097635722,851729.447012963,851729.447012963,851730.246794076,0.8,851732.116998645,851732.116998645,851733.716835194,1.6,851735.497635851,851737.766724764,2.2690889131045,78,Longer,Middle,66,=,Index
207,Spatial,4132,4,1,59,800,3.75,3.33333333333333,1,m,m,-800,400,-800,0,=,L,S,0.488401104412042,0.320104247448221,1.07080010805709,1.41280810431851,1.1788995989945,851739.514349306,851740.017310433,851740.017310433,851743.217072426,3.2,851744.317035602,851744.317035602,851746.716916036,2.4,851748.281078345,851748.638696595,0.357618249719962,77,Shorter,Ring,77,S,Ring
207,Spatial,4132,4,1,60,1200,10,5,1,r,r,0,1600,0,1200,S,=,L,0.455836880953952,0.263274823866891,1.04508166744866,1.1144391221378,1.58568027112235,851749.964395807,851750.437389228,851750.437389228,851752.036931922,1.6,851753.107256855,851753.107256855,851755.507001911,2.4,851756.764381627,851757.094741448,0.330359820974991,66,Shorter,Index,78,=,Middle
207,Spatial,4132,4,1,61,1600,3.75,5,2,m,m,-800,400,-800,800,S,=,L,0.306848575331594,0.461956565670799,1.57789051951914,1.80805195366692,1.04936804067986,851758.831112262,851759.157562756,851759.157562756,851762.357355868,3.2,851763.977572387,851763.977572387,851767.177369989,3.2,851769.131186021,851769.494572193,0.363386171753518,77,Longer,Ring,78,=,Middle
207,Spatial,4132,4,1,62,1200,2.5,5,1,m,m,-800,0,-800,400,S,=,L,0.400814540693808,0.384818474939086,1.9587011310812,1.23217551077158,1.86678668293277,851770.697872346,851771.117489151,851771.117489151,851774.317399035,3.2,851776.307850082,851776.307850082,851778.707304812,2.4,851780.097857717,851780.422564689,0.32470697152894,77,Longer,Ring,77,L,Ring
207,Spatial,4132,4,1,63,800,5,5,1,r,r,0,1200,0,800,L,S,=,0.401570885563682,0.432211075011647,1.71067693581351,1.4404260336509,1.85110727706471,851782.431241737,851782.847847817,851782.847847817,851785.247667299,2.4,851786.987670908,851786.987670908,851788.587497832,1.6,851790.164582577,851792.02240833,1.85782575269695,78,Shorter,Middle,78,S,Middle
207,Spatial,4132,4,1,64,400,5,5,2,l,l,-1600,-1200,-1600,-1200,S,=,L,0.421685130395441,0.371850385141369,1.60371196561392,1.20717153178303,1.8006659376009,851794.014648086,851794.448045945,851794.448045945,851795.247489896,0.8,851796.887823898,851796.887823898,851797.687675909,0.8,851799.031319243,851799.478651118,0.447331874980591,78,Equals to,Middle,78,=,Middle
207,Spatial,4132,4,1,65,800,15,5,1,l,l,-1600,-400,-1600,-800,=,L,S,0.377759993174824,0.316776782705904,1.52360274766525,1.18130502953089,1.10646354279837,851801.431334449,851801.828165661,851801.828165661,851802.627734404,0.8,851804.187625739,851804.187625739,851805.787652523,1.6,851807.114713215,851807.742647623,0.627934407792054,77,Shorter,Ring,66,=,Index
207,Spatial,4132,4,1,66,400,10,5,2,r,r,0,800,0,400,S,=,L,0.259393163563339,0.371696931336218,1.78403227914216,1.78752748566459,1.23185043456173,851808.998077755,851809.267698523,851809.267698523,851810.067736919,0.8,851811.878019231,851811.878019231,851812.677837879,0.8,851814.614713769,851817.390763922,2.77605015283916,66,Shorter,Index,78,=,Middle
207,Spatial,4132,4,1,67,400,2.5,5,2,r,r,0,400,0,400,=,L,S,0.288571119898772,0.445245520479326,1.1015071504238,1.2084652178402,1.81553679023573,851818.781412356,851819.08817107,851819.08817107,851820.687926456,1.6,851821.818260904,851821.818260904,851822.61802694,0.8,851823.964794798,851824.406751724,0.441956926253624,66,Equals to,Index,77,S,Ring
207,Spatial,4132,4,1,68,800,7.5,3.33333333333333,1,l,l,-1600,-400,-1600,-800,L,S,=,0.387115956521652,0.288649239879453,1.74169491869026,1.65867629554718,1.32400822700995,851826.38146131,851826.78844943,851826.78844943,851828.38827058,1.6,851830.15812833,851830.15812833,851832.558179109,2.4,851834.364806241,851834.766536774,0.40173053345643,78,Shorter,Middle,77,=,Ring
207,Spatial,4132,4,1,69,1200,10,7.5,1,r,r,0,800,0,1200,L,S,=,0.342807899265317,0.371858372222679,1.30298502430365,1.42326705138786,1.21992643511282,851836.231537453,851836.588478238,851836.588478238,851837.388293357,0.8,851838.71846009,851838.71846009,851840.318257821,1.6,851841.88156346,851843.966634362,2.08507090201601,66,Longer,Index,77,=,Ring
207,Spatial,4132,4,1,70,400,1.25,1.25,2,r,r,0,400,0,400,=,L,S,0.413300147486198,0.29786919654829,1.5054333907787,1.42327767301709,1.64950133268321,851845.331584963,851845.758421735,851845.758421735,851848.958505493,3.2,851850.49847375,851850.49847375,851853.698308887,3.2,851855.264922018,851856.270624271,1.00570225284901,66,Equals to,Index,78,L,Middle
207,Spatial,4132,4,1,71,400,3.33333333333333,1.25,2,l,l,-1600,-800,-1600,-1200,L,S,=,0.439405369649904,0.26263771160123,1.01007851209415,1.16659387605619,1.71197446293675,851858.064968149,851858.518758693,851858.518758693,851860.918555718,2.4,851861.958621338,851861.958621338,851865.158505878,3.2,851866.481636179,851866.870729366,0.389093186240643,78,Shorter,Middle,77,=,Ring
207,Spatial,4132,4,1,72,1600,20,20,2,r,r,0,1600,0,1600,L,S,=,0.365164628889146,0.399740284064964,1.00571120381623,1.45710203084767,1.52158056715072,851868.71502145,851869.098744699,851869.098744699,851869.898561101,0.8,851870.938808616,851870.938808616,851871.738588125,0.8,851873.331664201,851873.710612991,0.378948790021241,77,Equals to,Ring,77,=,Ring
207,Spatial,4132,4,1,73,800,1.25,3.33333333333333,1,m,m,-800,-400,-800,0,=,L,S,0.356827823462299,0.204506471641606,1.84885151895459,1.23070058350198,1.29211260086307,851879.265067983,851879.638990414,851879.638990414,851882.83894521,3.2,851884.708835393,851884.708835393,851887.108830674,2.4,851888.498413474,851891.10261168,2.6041982055176,78,Longer,Middle,66,=,Index
207,Spatial,4132,4,1,74,1200,3.33333333333333,7.5,1,l,l,-1600,-800,-1600,-400,=,L,S,0.263906795502203,0.221177717585516,1.73307567233666,1.57878835064659,1.59824013500676,851892.531832045,851892.809158793,851892.809158793,851895.20901228,2.4,851896.979389729,851896.979389729,851898.578893606,1.6,851900.315149001,851901.93469148,1.61954247881658,78,Longer,Middle,77,S,Ring
207,Spatial,4132,4,1,75,800,2.5,3.33333333333333,1,l,l,-1600,-1200,-1600,-800,S,=,L,0.26453007848079,0.298420683539118,1.24532119638487,1.07313201017671,1.13311169177985,851903.681841877,851903.959293739,851903.959293739,851905.559139911,1.6,851906.83942709,851906.83942709,851909.239249779,2.4,851910.448579673,851910.93455161,0.485971937305294,77,Longer,Ring,77,L,Ring
207,Spatial,4132,4,1,76,1200,20,7.5,1,m,m,-800,800,-800,400,S,=,L,0.416637919757644,0.332586446831396,1.1786205750841,1.04118684076826,1.31087575836091,851912.215209921,851912.649584254,851912.649584254,851913.449328475,0.8,851914.65962086,851914.65962086,851916.259457729,1.6,851917.448566,851917.790505163,0.341939163743518,66,Shorter,Index,77,L,Ring
207,Spatial,4132,4,1,77,1200,20,7.5,1,l,l,-1600,0,-1600,-400,L,S,=,0.336252679994699,0.421831128195229,1.20319685184965,1.16257187761807,1.15028874361953,851919.248610848,851919.599474363,851919.599474363,851920.39928467,0.8,851921.629712825,851921.629712825,851923.229237553,1.6,851924.54865078,851924.93460326,0.385952479322441,78,Shorter,Middle,77,=,Ring
207,Spatial,4132,4,1,78,400,2.5,1.25,2,r,r,0,800,0,400,S,=,L,0.454091709172326,0.37468041979619,1.96682676295998,1.68326653363011,1.81506293840237,851926.231607708,851926.699654686,851926.699654686,851929.899643807,3.2,851931.899631652,851931.899631652,851935.099487962,3.2,851936.931999953,851937.262772325,0.330772372195497,66,Shorter,Index,78,=,Middle
207,Spatial,4132,4,1,79,1600,6.66666666666667,5,2,m,m,-800,800,-800,800,=,L,S,0.310740188553583,0.34477604083678,1.38622096716421,1.5639828337678,1.37928552062538,851939.232049131,851939.559956708,851939.559956708,851941.959745713,2.4,851943.379757817,851943.379757817,851946.579638508,3.2,851948.298773597,851951.118580875,2.81980727787595,66,Equals to,Index,78,L,Middle
207,Spatial,4132,4,1,80,800,1.66666666666667,5,1,r,r,0,400,0,800,L,S,=,0.395216096327215,0.318225584426371,1.97550297527997,1.56156948629839,1.79526262265214,851952.64878838,851953.060066903,851953.060066903,851955.459925202,2.4,851957.469897042,851957.469897042,851959.069924467,1.6,851960.782132235,851961.382520277,0.600388041930273,66,Longer,Index,78,S,Middle
207,Spatial,4132,4,1,81,400,2.5,5,2,r,r,0,400,0,400,=,L,S,0.35152190788163,0.248271949380343,1.1696024615424,1.69325610168448,1.157643633585,851963.315503808,851963.680181372,851963.680181372,851965.279972366,1.6,851966.4800501,851966.4800501,851967.279872597,0.8,851969.132186403,851970.446771755,1.3145853523165,66,Equals to,Index,77,S,Ring
207,Spatial,4132,4,1,82,1600,6.66666666666667,5,2,l,l,-1600,0,-1600,0,S,=,L,0.339194903669113,0.364647810765087,1.63871664200387,1.61930744816452,1.70622475803623,851971.765552875,851972.120252538,851972.120252538,851974.520080682,2.4,851976.190443983,851976.190443983,851979.390273987,3.2,851981.148910765,851981.502546365,0.353635599254631,78,Equals to,Middle,78,=,Middle
207,Spatial,4132,4,1,83,1600,10,20,2,l,l,-1600,0,-1600,0,L,S,=,0.251307629230652,0.300512919249759,1.34458775178074,1.73277770992456,1.59004264147946,851983.348965687,851983.620241792,851983.620241792,851985.220156295,1.6,851986.590368723,851986.590368723,851987.390169085,0.8,851989.26565323,851989.662528323,0.396875092992559,77,Equals to,Ring,78,S,Middle
207,Spatial,4132,4,1,84,400,2.5,1.25,2,r,r,0,800,0,400,=,L,S,0.498659775189305,0.473711825380178,1.16755293160783,1.37646395414102,1.29818387041689,851991.415672582,851991.930652229,851991.930652229,851995.130238744,3.2,851996.330659735,851996.330659735,851999.530442902,3.2,852001.065669422,852003.358805,2.29313557827845,77,Shorter,Ring,66,=,Index
207,Spatial,4132,4,1,85,800,1.25,3.33333333333333,1,m,m,-800,-400,-800,0,S,=,L,0.279405588956297,0.35723414180686,1.05808065635433,1.14781831178498,1.80208166269661,852004.815722755,852005.110756804,852005.110756804,852008.310412612,3.2,852009.41080887,852009.41080887,852011.810652091,2.4,852013.115764244,852013.606620259,0.490856015356258,77,Longer,Ring,77,L,Ring
207,Spatial,4132,4,1,86,1200,3.33333333333333,7.5,1,m,m,-800,0,-800,400,S,=,L,0.209374187499717,0.215039625899874,1.11346638059085,1.69937338675968,1.08669291222848,852015.549113961,852015.770681499,852015.770681499,852018.170511888,2.4,852019.311060988,852019.311060988,852020.910835942,1.6,852022.765770699,852023.094553137,0.32878243830055,77,Longer,Ring,78,=,Middle
207,Spatial,4132,4,1,87,1200,5,5,1,l,l,-1600,-800,-1600,-400,=,L,S,0.223648979560636,0.462454867796184,1.48461154561565,1.89829635474711,1.33906899521201,852024.332500532,852024.571000632,852024.571000632,852026.170867978,1.6,852027.681099827,852027.681099827,852030.080900061,2.4,852032.132535123,852032.678574831,0.546039708075114,78,Longer,Middle,66,=,Index
207,Spatial,4132,4,1,88,1600,5,5,2,r,r,0,1600,0,1600,L,S,=,0.390391168430604,0.377712250253591,1.16247387489129,1.79707413921969,1.19889536274747,852034.165874767,852034.570997745,852034.570997745,852037.770866245,3.2,852038.96100265,852038.96100265,852042.161052403,3.2,852044.115899293,852044.534473207,0.418573913862929,77,Equals to,Ring,77,=,Ring
207,Spatial,4132,4,1,89,400,5,5,2,r,r,0,400,0,400,S,=,L,0.30888567819909,0.27507081773498,1.93170400307984,1.86335956709752,1.60262910072475,852045.882603525,852046.211094319,852046.211094319,852047.011067273,0.8,852048.981221508,852048.981221508,852049.781114902,0.8,852051.799265941,852052.222373427,0.423107485519722,78,Equals to,Middle,78,=,Middle
207,Spatial,4132,4,1,90,800,1.66666666666667,5,1,l,l,-1600,-1200,-1600,-800,=,L,S,0.41506144554461,0.267839459193949,1.95232343945576,1.82091510048067,1.14030630516798,852053.965971906,852054.401339762,852054.401339762,852056.801156998,2.4,852058.78142002,852058.78142002,852060.381289931,1.6,852062.349314398,852063.262640796,0.913326397538185,78,Longer,Middle,77,S,Ring
207,Spatial,4132,4,1,91,1200,10,5,1,m,m,-800,800,-800,400,=,L,S,0.296651747991272,0.365139356364548,1.74959542667222,1.2277578110707,1.1950745040611,852064.549386643,852064.861667961,852064.861667961,852066.461433612,1.6,852068.251575984,852068.251575984,852070.651344779,2.4,852072.032746001,852072.518527109,0.485781107912771,77,Shorter,Ring,66,=,Index
207,Spatial,4132,4,1,92,1600,15,20,2,r,r,0,1200,0,1600,=,L,S,0.457310513158471,0.229895158440652,1.47956173283694,1.44134433650186,1.20898533144515,852073.849411441,852074.321597083,852074.321597083,852075.121469946,0.8,852076.631725215,852076.631725215,852077.431569526,0.8,852079.016058057,852079.486447245,0.470389187219553,78,Longer,Middle,66,=,Index
207,Spatial,4132,4,1,93,1200,2.5,5,1,l,l,-1600,-800,-1600,-400,S,=,L,0.449120248420242,0.470710516233646,1.49373197306504,1.94853897103704,1.50314476273489,852080.849439351,852081.311648376,852081.311648376,852084.51149025,3.2,852086.041609569,852086.041609569,852088.441540689,2.4,852090.532843733,852091.246678337,0.71383460459765,77,Longer,Ring,78,=,Middle
207,Spatial,4132,4,1,94,400,5,5,2,l,l,-1600,-800,-1600,-1200,S,=,L,0.223911401875221,0.443674777581715,1.36024241962899,1.74155609203154,1.11840998561837,852092.899525823,852093.141927836,852093.141927836,852094.741779783,1.6,852096.121877079,852096.121877079,852096.921860619,0.8,852098.799504618,852099.318510042,0.519005424459465,66,Shorter,Index,66,S,Index
207,Spatial,4132,4,1,95,800,7.5,3.33333333333333,1,l,l,-1600,-400,-1600,-800,S,=,L,0.411584840460446,0.239419265622503,1.19581618890566,1.06140949893467,1.73015279805604,852100.582874827,852101.012216741,852101.012216741,852102.611666402,1.6,852103.841929023,852103.841929023,852106.24173856,2.4,852107.449597577,852107.830505305,0.380907727172598,66,Shorter,Index,77,L,Ring
207,Spatial,4132,4,1,96,800,5,5,1,m,m,-800,400,-800,0,L,S,=,0.395194414775868,0.227968845162964,1.92095941284137,1.01069000265755,1.87085214268518,852109.716258462,852110.12202946,852110.12202946,852112.521942295,2.4,852114.472041923,852114.472041923,852116.071876546,1.6,852117.232942565,852117.798516869,0.565574304200709,78,Shorter,Middle,78,S,Middle
