Subject,Task,SequenceOrder,ListNo,RunNo,TrialNo,Aud_Probe_Dist,Aud_Standard_Vel,Aud_Probe_Vel,Main_Control,Aud_Std_StartCode,Aud_Probe_StartCode,Aud_Std_StartPt,Aud_Std_EndPt,Aud_Probe_StartPt,Aud_Probe_EndPt,RespIndex,RespMiddle,RespRing,ISI_Cross_Std,ISI_Cross_Probe,ISI_Std_Probe,ISI_Probe_Response,ITI,TrialOnset,StdOnset,StdOnsetByStop,StdOffset,StdDur,ProbeOnset,ProbeOnsetByStop,ProbeOffset,ProbeDur,RespWinStart,RespTime,RT,CorrectKC,CorrectResponse,CorrectFinger,SubjRespKC,SubjResponse,SubjRespFinger
203,Spatial,3421,3,1,1,1200,5,5,1,r,r,0,1600,0,1200,S,=,L,0.290458772425195,0.453295891292427,1.16322880421017,1.39162812853248,1.35463535010916,775591.42128886,775591.722811767,775591.722811767,775594.933300733,3.2,775596.133565494,775596.133565494,775598.533509768,2.4,775600.071323775,775601.477061224,1.40573744871654,66,Shorter,Index,77,L,Ring
203,Spatial,3421,3,1,2,400,1.25,1.25,2,r,r,0,400,0,400,L,S,=,0.236282382871356,0.326224813840056,1.850121195857,1.44434758350899,1.41657470461839,775602.988086061,775603.243599888,775603.243599888,775606.443649641,3.2,775608.323842375,775608.323842375,775611.523698043,3.2,775613.121390458,775613.620894017,0.499503559200093,77,Equals to,Ring,66,L,Index
203,Spatial,3421,3,1,3,800,2.5,3.33333333333333,1,l,l,-1600,-1200,-1600,-800,L,S,=,0.400114881575714,0.223092466501895,1.82099841450784,1.50956475085065,1.70653716169722,775615.188093824,775615.604092626,775615.604092626,775617.203857636,1.6,775619.053926756,775619.053926756,775621.453913375,2.4,775623.104782546,775624.196882512,1.09209996566642,66,Longer,Index,66,L,Index
203,Spatial,3421,3,1,4,800,3.75,3.33333333333333,1,l,l,-1600,-400,-1600,-800,=,L,S,0.277799981231896,0.411390395817804,1.1897178765423,1.92092889815207,1.59829647328625,775626.071513469,775626.364041093,775626.364041093,775629.563947448,3.2,775630.774360775,775630.774360775,775633.173774442,2.4,775635.238177409,775635.892912172,0.654734762618318,77,Shorter,Ring,66,=,Index
203,Spatial,3421,3,1,5,400,2.5,1.25,2,m,m,-800,0,-800,-400,=,L,S,0.391028559583479,0.381930672117143,1.82651311787451,1.0965450013997,1.87738882426154,775637.654886823,775638.064214871,775638.064214871,775641.264107752,3.2,775643.114178797,775643.114178797,775646.314083548,3.2,775647.554906039,775648.108870845,0.553964806138538,77,Shorter,Ring,78,L,Middle
203,Spatial,3421,3,1,6,400,5,5,2,m,m,-800,-400,-800,-400,L,S,=,0.321703168870697,0.438405725595816,1.54259585418653,1.09027266486809,1.07353472412729,775650.138285487,775650.474115586,775650.474115586,775651.274093031,0.8,775652.844344661,775652.844344661,775653.64421175,0.8,775654.871619591,775655.932830188,1.06121059716679,77,Equals to,Ring,66,L,Index
203,Spatial,3421,3,1,7,1200,10,5,1,l,l,-1600,0,-1600,-400,L,S,=,0.431578244741571,0.405530916416203,1.3348186752794,1.52438678851603,1.83205206750466,775657.154985148,775657.604506461,775657.604506461,775659.204221104,1.6,775660.574485503,775660.574485503,775662.974307872,2.4,775664.638329918,775665.828894238,1.19056431937497,78,Shorter,Middle,66,L,Index
203,Spatial,3421,3,1,8,800,3.75,3.33333333333333,1,r,r,0,1200,0,800,S,=,L,0.49066316131178,0.405451517806004,1.88108142042057,1.91156780139845,1.6551610382927,775667.821721108,775668.32474832,775668.32474832,775671.52461297,3.2,775673.43481768,775673.43481768,775675.83461631,2.4,775677.905029178,775678.428878069,0.523848890792578,66,Shorter,Index,66,S,Index
203,Spatial,3421,3,1,9,1600,6.66666666666667,5,2,m,m,-800,800,-800,800,S,=,L,0.278292817409745,0.483645121264024,1.26879323892886,1.43169059238391,1.24304185912074,775680.238458432,775680.53480873,775680.53480873,775682.934699109,2.4,775684.234969355,775684.234969355,775687.434837535,3.2,775689.02181228,775689.572907514,0.551095233648084,78,Equals to,Middle,77,L,Ring
203,Spatial,3421,3,1,10,1200,5,5,1,m,m,-800,800,-800,400,S,=,L,0.339060365202312,0.227731701895795,1.45044900904823,1.59354452577304,1.06692630666061,775690.988488346,775691.344955949,775691.344955949,775694.544686504,3.2,775696.025195742,775696.025195742,775698.424736126,2.4,775700.171848419,775700.620815421,0.448967001982965,66,Shorter,Index,78,=,Middle
203,Spatial,3421,3,1,11,1200,3.33333333333333,7.5,1,l,l,-1600,-800,-1600,-400,S,=,L,0.345417907334778,0.430019170664372,1.64200139264966,1.10234912292543,1.45211063350107,775701.855203197,775702.215093114,775702.215093114,775704.614873779,2.4,775706.295323091,775706.295323091,775707.895115368,1.6,775709.138544374,775709.476857836,0.338313461281359,77,Longer,Ring,66,S,Index
203,Spatial,3421,3,1,12,1200,10,7.5,1,m,m,-800,0,-800,400,L,S,=,0.310005423540839,0.295476189756134,1.02610107425266,1.73213475502723,1.91855667011063,775711.08861317,775711.415178191,775711.415178191,775712.215139595,0.8,775713.275192775,775713.275192775,775714.875159889,1.6,775716.755327909,775717.244872865,0.489544955082238,66,Longer,Index,66,L,Index
203,Spatial,3421,3,1,13,1200,10,5,1,l,l,-1600,0,-1600,-400,S,=,L,0.315928934678237,0.485614609174033,1.98841771815096,1.58505857945732,1.88161435224971,775719.321995234,775719.655461664,775719.655461664,775721.255252017,1.6,775723.275457436,775723.275457436,775725.675292316,2.4,775727.405374201,775729.004853411,1.59947921033017,66,Shorter,Index,77,L,Ring
203,Spatial,3421,3,1,14,800,5,5,1,r,r,0,400,0,800,=,L,S,0.393659006829878,0.338556435946359,1.92360926187481,1.32672290517611,1.14026607919813,775731.055368795,775731.465236433,775731.465236433,775732.265219331,0.8,775734.225371285,775734.225371285,775735.825351232,1.6,775737.305428384,775737.932724644,0.627296259510331,78,Longer,Middle,78,L,Middle
203,Spatial,3421,3,1,15,1200,6.66666666666667,7.5,1,l,l,-1600,0,-1600,-400,S,=,L,0.437989811279178,0.388701726170222,1.59113581157478,1.59580463250577,1.47008104984576,775739.222102028,775739.675558617,775739.675558617,775742.075350189,2.4,775743.695692141,775743.695692141,775745.295498213,1.6,775747.038324914,775747.580902858,0.542577944346704,66,Shorter,Index,66,S,Index
203,Spatial,3421,3,1,16,1200,20,7.5,1,m,m,-800,800,-800,400,=,L,S,0.407976413354436,0.416808650395421,1.931855729466,1.1894797927142,1.55217372346205,775749.205516846,775749.625781719,775749.625781719,775750.425537489,0.8,775752.385765473,775752.385765473,775753.985514122,1.6,775755.322122592,775755.92483741,0.60271481773816,77,Shorter,Ring,78,L,Middle
203,Spatial,3421,3,1,17,800,1.66666666666667,5,1,r,r,0,400,0,800,=,L,S,0.459963185394273,0.396966579008598,1.14019636677006,1.3912932936715,1.12775764198411,775757.638865016,775758.115882896,775758.115882896,775760.515769426,2.4,775761.695858317,775761.695858317,775763.295633913,1.6,775764.822111203,775765.324825989,0.502714785630815,78,Longer,Middle,66,=,Index
203,Spatial,3421,3,1,18,1600,5,5,2,m,m,-800,800,-800,800,=,L,S,0.492727663181356,0.439953475939981,1.82697032076202,1.54350675154646,1.13926487320008,775766.622223099,775767.126032746,775767.126032746,775770.325900926,3.2,775772.18610578,775772.18610578,775775.385917498,3.2,775777.088901251,775777.620860333,0.531959082349204,66,Equals to,Index,78,L,Middle
203,Spatial,3421,3,1,19,800,1.66666666666667,5,1,m,m,-800,-400,-800,0,S,=,L,0.456203519664151,0.201720625424926,1.54463420392527,1.93453341076823,1.89620164063025,775778.905641268,775779.376192746,775779.376192746,775781.776036609,2.4,775783.346078756,775783.346078756,775784.945878091,1.6,775787.022350831,775787.380815536,0.358464705292135,77,Longer,Ring,78,=,Middle
203,Spatial,3421,3,1,20,400,3.33333333333333,1.25,2,r,r,0,800,0,400,S,=,L,0.409419640020024,0.38944125944944,1.06229432431114,1.77766723555334,1.41190779435056,775789.43900418,775789.866276601,775789.866276601,775792.266157034,2.4,775793.366177954,775793.366177954,775796.566101311,3.2,775798.50573852,775799.524955978,1.01921745750587,66,Shorter,Index,77,L,Ring
203,Spatial,3421,3,1,21,400,5,5,2,r,r,0,400,0,400,L,S,=,0.334012476534072,0.38863439648512,1.29798484567803,1.52085915015502,1.30489618299386,775801.089100468,775801.436473659,775801.436473659,775802.236283966,0.8,775803.566427602,775803.566427602,775804.366276084,0.8,775806.039103028,775806.644722537,0.60561950923875,77,Equals to,Ring,77,=,Ring
203,Spatial,3421,3,1,22,800,5,5,1,r,r,0,1200,0,800,L,S,=,0.34056278213489,0.20526800425246,1.30490485909147,1.46782042165709,1.28600466602252,775808.105768691,775808.466602407,775808.466602407,775810.866512675,2.4,775812.206493379,775812.206493379,775813.80654711,1.6,775815.422464278,775816.620819591,1.19835531304125,78,Shorter,Middle,66,L,Index
203,Spatial,3421,3,1,23,1600,6.66666666666667,5,2,m,m,-800,800,-800,800,S,=,L,0.466034906271239,0.49572335112724,1.29006625964365,1.85897154290724,1.46512720485727,775818.072499935,775818.556671376,775818.556671376,775820.956486366,2.4,775822.276774649,775822.276774649,775825.476694477,3.2,775827.47254851,775828.116879021,0.644330511102453,78,Equals to,Middle,77,L,Ring
203,Spatial,3421,3,1,24,400,2.5,1.25,2,m,m,-800,0,-800,-400,=,L,S,0.445885852638816,0.316212807838239,1.92816258911345,1.45163325976112,1.6292679670326,775829.739218251,775830.196818316,775830.196818316,775833.396638375,3.2,775835.347049181,775835.347049181,775838.546853842,3.2,775840.139233457,775840.604886646,0.465653189457953,77,Shorter,Ring,66,=,Index
203,Spatial,3421,3,1,25,800,5,5,1,l,l,-1600,-400,-1600,-800,L,S,=,0.335485247438328,0.454888770671179,1.02003619676513,1.11778626631479,1.66859662091598,775928.106410936,775928.458183604,775928.458183604,775930.858110233,2.4,775931.908155357,775931.908155357,775933.507970091,1.6,775934.773088189,775935.764725848,0.991637658094987,78,Shorter,Middle,78,S,Middle
203,Spatial,3421,3,1,26,400,1.66666666666667,1.25,2,l,l,-1600,-1200,-1600,-1200,S,=,L,0.205587022034256,0.269463444751018,1.7610152723497,1.02499375399852,1.30908524793178,775937.589805431,775937.808391435,775937.808391435,775940.20820418,2.4,775941.998235875,775941.998235875,775945.198017438,3.2,775946.356458976,775946.804701929,0.448242952232249,78,Equals to,Middle,77,L,Ring
203,Spatial,3421,3,1,27,1200,5,5,1,r,r,0,800,0,1200,L,S,=,0.200235548379002,0.358139446610377,1.4437149169637,1.92776318570767,1.38864635986159,775948.273181382,775948.488602035,775948.488602035,775950.088374423,1.6,775951.56859109,775951.56859109,775953.968137569,2.4,775956.056563338,775957.852685545,1.79612220660783,66,Longer,Index,66,L,Index
203,Spatial,3421,3,1,28,1200,2.5,5,1,m,m,-800,0,-800,400,S,=,L,0.316871928584786,0.478710719849475,1.55688126849351,1.86162669885696,1.89519392528418,775959.389901928,775959.718642626,775959.718642626,775962.918539999,3.2,775964.508845915,775964.508845915,775966.908387262,2.4,775968.92324527,NaN,NaN,77,Longer,Ring,999,Missed,Missed
203,Spatial,3421,3,1,29,400,2.5,5,2,m,m,-800,-400,-800,-400,S,=,L,0.216519054220809,0.35176411237652,1.41581704676038,1.23564696750938,1.08395313695433,775973.906665589,775974.138786224,775974.138786224,775975.738659023,1.6,775977.188836445,775977.188836445,775977.988635203,0.8,775979.373347739,775979.876913142,0.503565402817912,78,Equals to,Middle,66,S,Index
203,Spatial,3421,3,1,30,400,3.33333333333333,1.25,2,r,r,0,800,0,400,=,L,S,0.319758069549918,0.222474435567273,1.93552767940156,1.15084603223977,1.09901424494748,775981.140009156,775981.479028987,775981.479028987,775983.878787517,2.4,775985.839071962,775985.839071962,775989.03891576,3.2,775990.340031997,775991.284719342,0.944687344948761,77,Shorter,Ring,78,L,Middle
203,Spatial,3421,3,1,31,800,7.5,3.33333333333333,1,r,r,0,1200,0,800,=,L,S,0.438511559828381,0.485639597919345,1.45426778513917,1.35193027526717,1.652712150198,775992.540085314,775992.99903403,775992.99903403,775994.598917416,1.6,775996.079192468,775996.079192468,775998.479050446,2.4,775999.973450492,776000.868867752,0.895417259889655,77,Shorter,Ring,78,L,Middle
203,Spatial,3421,3,1,32,1600,15,20,2,m,m,-800,400,-800,800,S,=,L,0.326207536902008,0.384456272393958,1.03478344530964,1.44210943522848,1.04780721612112,776002.673446814,776003.018836487,776003.018836487,776003.818867185,0.8,776004.889313381,776004.889313381,776005.689087758,0.8,776007.273437382,776007.892803741,0.619366358616389,77,Longer,Ring,78,=,Middle
203,Spatial,3421,3,1,33,1200,5,5,1,r,r,0,800,0,1200,L,S,=,0.349815759167263,0.470812983507781,1.53905425745227,1.13815613462519,1.9249693558082,776009.106826696,776009.469410706,776009.469410706,776011.069212929,1.6,776012.649207953,776012.649207953,776015.049030001,2.4,776016.323488887,776016.988752687,0.665263800183311,66,Longer,Index,66,L,Index
203,Spatial,3421,3,1,34,800,1.25,3.33333333333333,1,l,l,-1600,-1200,-1600,-800,S,=,L,0.333109206210374,0.362821021400267,1.43623409819768,1.30172416095843,1.60045117569932,776019.090222633,776019.439595382,776019.439595382,776022.639068334,3.2,776024.109662869,776024.109662869,776026.509124657,2.4,776027.956889364,776028.500711699,0.543822334846482,77,Longer,Ring,78,=,Middle
203,Spatial,3421,3,1,35,1200,10,5,1,l,l,-1600,0,-1600,-400,S,=,L,0.458939426860706,0.314335946470985,1.62834683252092,1.99055929004898,1.59095934990711,776030.256923145,776030.729506902,776030.729506902,776032.329348262,1.6,776033.979781428,776033.979781428,776036.379571717,2.4,776038.506992186,776041.004661572,2.49766938562971,66,Shorter,Index,77,L,Ring
203,Spatial,3421,3,1,36,1200,20,7.5,1,r,r,0,1600,0,1200,L,S,=,0.310181547676091,0.416302067984816,1.53327785604586,1.73888166425013,1.68788565915556,776042.757007034,776043.07969324,776043.07969324,776043.879483657,0.8,776045.439732044,776045.439732044,776047.039528171,1.6,776048.923671937,776049.356874415,0.433202478219755,78,Shorter,Middle,66,L,Index
203,Spatial,3421,3,1,37,1200,6.66666666666667,7.5,1,r,r,0,1600,0,1200,S,=,L,0.347797482431166,0.404090972736775,1.61249787472874,1.37334916076174,1.04130053322458,776051.1903805,776051.550021474,776051.550021474,776053.94982235,2.4,776055.599959736,776055.599959736,776057.199665397,1.6,776058.707100681,776059.156762391,0.449661709484644,66,Shorter,Index,78,=,Middle
203,Spatial,3421,3,1,38,800,15,5,1,m,m,-800,400,-800,0,=,L,S,0.316969230396976,0.4235445610177,1.97423039929518,1.51000271300942,1.38943686316385,776060.340447244,776060.670131291,776060.670131291,776061.470057728,0.8,776063.479867563,776063.479867563,776065.079684864,1.6,776066.740417408,776067.300755585,0.560338176437654,77,Shorter,Ring,78,L,Middle
203,Spatial,3421,3,1,39,800,5,5,1,r,r,0,1200,0,800,=,L,S,0.439203080459694,0.413358167529667,1.96139389428288,1.36781598112301,1.40217366640305,776068.840474222,776069.289770652,776069.289770652,776071.689803146,2.4,776073.68021666,776073.68021666,776075.280056737,1.6,776076.790513831,776077.348517847,0.558004016405903,77,Shorter,Ring,66,=,Index
203,Spatial,3421,3,1,40,1600,5,5,2,r,r,0,1200,0,1600,L,S,=,0.478475254082208,0.48799556927477,1.03439708627778,1.92731425468196,1.73550283967667,776078.907204857,776079.400416815,776079.400416815,776081.800167003,2.4,776082.870238183,776082.870238183,776086.070130743,3.2,776088.157199002,776088.572839183,0.415640180930495,66,Longer,Index,66,L,Index
203,Spatial,3421,3,1,41,1200,6.66666666666667,7.5,1,l,l,-1600,0,-1600,-400,=,L,S,0.283435406203098,0.213043544878612,1.1439651816057,1.70281572822339,1.15567449488082,776090.457285619,776090.760489945,776090.760489945,776093.160263552,2.4,776094.330351766,776094.330351766,776095.930153347,1.6,776097.773970223,776098.356691237,0.582721013808623,77,Shorter,Ring,77,S,Ring
203,Spatial,3421,3,1,42,1200,5,5,1,l,l,-1600,-800,-1600,-400,S,=,L,0.466951759834206,0.444241049264268,1.92686314255251,1.81352188892836,1.16875718584128,776099.673959776,776100.160574444,776100.160574444,776101.760384045,1.6,776103.720699608,776103.720699608,776106.12023518,2.4,776108.090643525,776108.668620992,0.577977466164157,77,Longer,Ring,77,L,Ring
203,Spatial,3421,3,1,43,800,1.25,3.33333333333333,1,m,m,-800,-400,-800,0,S,=,L,0.317243353782865,0.45562591824034,1.27587655531761,1.02964428268574,1.83780850443584,776110.007352778,776110.340791299,776110.340791299,776113.540325203,3.2,776114.850685951,776114.850685951,776117.250442235,2.4,776118.440693843,776118.828665506,0.387971662916243,77,Longer,Ring,78,=,Middle
203,Spatial,3421,3,1,44,1600,7.5,20,2,l,l,-1600,-400,-1600,0,L,S,=,0.342914517265018,0.437024055556286,1.34326800275613,1.46911540594648,1.51396177869312,776120.824073869,776121.180814474,776121.180814474,776122.780581729,1.6,776124.150603601,776124.150603601,776124.950541587,0.8,776126.574057268,776127.140443521,0.566386253805831,66,Longer,Index,78,S,Middle
203,Spatial,3421,3,1,45,1600,3.75,5,2,l,l,-1600,-400,-1600,0,=,L,S,0.432691753322322,0.310659698199662,1.23593346288793,1.51701865293505,1.1213061045275,776128.824140596,776129.270909749,776129.270909749,776132.470743282,3.2,776133.74110421,776133.74110421,776136.940924589,3.2,776138.607517146,776139.180560114,0.573042968055233,78,Longer,Middle,78,L,Middle
203,Spatial,3421,3,1,46,800,15,5,1,l,l,-1600,-400,-1600,-800,L,S,=,0.469926092847391,0.39884654988264,1.33090136137796,1.59320585274735,1.60051073398086,776140.440825693,776140.930899246,776140.930899246,776141.730716931,0.8,776143.09115966,776143.09115966,776144.690994925,1.6,776146.44087253,776148.140723261,1.6998507308308,78,Shorter,Middle,66,L,Index
203,Spatial,3421,3,1,47,800,15,5,1,m,m,-800,400,-800,0,L,S,=,0.397841821579178,0.454453046069417,1.68118371933767,1.64261635295502,1.2199755060932,776149.890915391,776150.301085975,776150.301085975,776151.100924833,0.8,776152.821114116,776152.821114116,776154.420887466,1.6,776156.207606794,776157.964548508,1.75694171420764,78,Shorter,Middle,66,L,Index
203,Spatial,3421,3,1,48,400,10,5,2,r,r,0,800,0,400,S,=,L,0.227060716772214,0.381626064884486,1.89108562979853,1.18231675485668,1.200419127798,776159.357609693,776159.601147345,776159.601147345,776160.401065761,0.8,776162.331270863,776162.331270863,776163.131052618,0.8,776164.457601384,776165.452420113,0.994818729348481,66,Shorter,Index,77,L,Ring
203,Spatial,3421,3,1,49,1200,10,7.5,1,l,l,-1600,-800,-1600,-400,=,L,S,0.408702872439068,0.295027142903779,1.67923834541635,1.64291090608723,1.45851540718399,776202.491168806,776202.911982203,776202.911982203,776203.711767487,0.8,776205.422064524,776205.422064524,776207.021903638,1.6,776208.80782301,776209.316715798,0.508892787736841,78,Longer,Middle,78,L,Middle
203,Spatial,3421,3,1,50,400,10,5,2,r,r,0,800,0,400,L,S,=,0.256206399722878,0.229834989405723,1.41907514567518,1.29195179949932,1.13062239499395,776210.924571465,776211.192145516,776211.192145516,776211.99198245,0.8,776213.442131642,776213.442131642,776214.241921096,0.8,776215.674521179,776216.204597155,0.530075975460932,78,Shorter,Middle,77,=,Ring
203,Spatial,3421,3,1,51,800,1.66666666666667,5,1,m,m,-800,-400,-800,0,=,L,S,0.217547928998065,0.200161125458136,1.77349444288408,1.38105358199382,1.59349482134218,776217.491240345,776217.722164068,776217.722164068,776220.121794277,2.4,776221.932147807,776221.932147807,776223.531967673,1.6,776225.057966477,776225.612473289,0.554506811895408,78,Longer,Middle,77,S,Ring
203,Spatial,3421,3,1,52,1600,20,20,2,l,l,-1600,0,-1600,0,L,S,=,0.201398871916644,0.311615268870452,1.01418982406857,1.32992938025874,1.83001520994162,776227.357965783,776227.572417293,776227.572417293,776228.371884984,0.8,776229.422303521,776229.422303521,776230.222182158,0.8,776231.707960281,776232.204608704,0.496648422558792,77,Equals to,Ring,77,=,Ring
203,Spatial,3421,3,1,53,800,2.5,3.33333333333333,1,l,l,-1600,-1200,-1600,-800,=,L,S,0.330008258710068,0.443309856169911,1.63743300642378,1.4487460766382,1.19540749604644,776234.191339377,776234.532281453,776234.532281453,776236.132128267,1.6,776237.792527784,776237.792527784,776240.192046353,2.4,776241.791375232,776242.236589119,0.445213887374848,78,Longer,Middle,78,L,Middle
203,Spatial,3421,3,1,54,1600,5,5,2,m,m,-800,800,-800,800,L,S,=,0.36387118246751,0.266038138473591,1.68700793644469,1.87947721774399,1.47914680711613,776243.591367094,776243.972389833,776243.972389833,776247.172212458,3.2,776248.89255348,776248.89255348,776252.092301359,3.2,776254.124726476,776254.676516567,0.551790090394206,77,Equals to,Ring,66,L,Index
203,Spatial,3421,3,1,55,1600,15,20,2,r,r,0,1200,0,1600,=,L,S,0.249261431016766,0.251870046751152,1.88045881668954,1.13043775650644,1.82201765702197,776256.308139802,776256.572743228,776256.572743228,776257.372559951,0.8,776259.282826896,776259.282826896,776260.0823318,0.8,776261.358147137,776263.412394308,2.05424717057031,78,Longer,Middle,66,=,Index
203,Spatial,3421,3,1,56,1200,2.5,5,1,r,r,0,800,0,1200,S,=,L,0.206018382609853,0.380445535298836,1.124470449952,1.73860417414885,1.60806371610303,776265.391495351,776265.612839289,776265.612839289,776268.812656782,3.2,776269.96259896,776269.96259896,776272.36264172,2.4,776274.241579513,776274.772489894,0.530910381115973,77,Longer,Ring,78,=,Middle
203,Spatial,3421,3,1,57,1200,5,5,1,r,r,0,800,0,1200,L,S,=,0.238398520412229,0.478650275895378,1.82521642967858,1.28624954822919,1.92611039897175,776276.524892138,776276.782855929,776276.782855929,776278.382664888,1.6,776280.23309491,776280.23309491,776282.63292177,2.4,776284.058269396,776284.684548803,0.626279407297261,66,Longer,Index,66,L,Index
203,Spatial,3421,3,1,58,1200,10,7.5,1,l,l,-1600,-800,-1600,-400,L,S,=,0.264734984399914,0.405788863026195,1.72818049129617,1.78254417186434,1.15010189272546,776286.758279014,776287.042924215,776287.042924215,776287.842707895,0.8,776289.60297367,776289.60297367,776291.202896834,1.6,776293.141608353,776294.268776773,1.12716842000373,66,Longer,Index,66,L,Index
203,Spatial,3421,3,1,59,1200,10,7.5,1,m,m,-800,0,-800,400,L,S,=,0.361291081794501,0.465185007165713,1.22271078654233,1.84257083128312,1.38006932783877,776295.574977969,776295.953086544,776295.953086544,776296.752890434,0.8,776298.013336339,776298.013336339,776299.613013128,1.6,776301.591651966,776302.060730678,0.469078711699694,66,Longer,Index,66,L,Index
203,Spatial,3421,3,1,60,800,5,5,1,r,r,0,400,0,800,S,=,L,0.404445751877504,0.230474713273414,1.41613741738169,1.65866978782368,1.40334008297082,776303.57505047,776303.993170093,776303.993170093,776304.792999327,0.8,776306.243314374,776306.243314374,776307.843268015,1.6,776309.641706037,776310.660476795,1.01877075782977,77,Longer,Ring,77,L,Ring
203,Spatial,3421,3,1,61,800,3.75,3.33333333333333,1,l,l,-1600,-400,-1600,-800,=,L,S,0.224505702555688,0.310197379437322,1.72267250869459,1.29085633650502,1.01360562287812,776312.208444483,776312.443304493,776312.443304493,776315.643270838,3.2,776317.393396066,776317.393396066,776319.79324827,2.4,776321.225134445,776322.95645949,1.73132504487876,77,Shorter,Ring,77,S,Ring
203,Spatial,3421,3,1,62,1600,20,20,2,r,r,0,1600,0,1600,=,L,S,0.372380027065265,0.489412142694613,1.95443342420983,1.5308633820643,1.38790395498451,776324.108471767,776324.493623226,776324.493623226,776325.293237202,0.8,776327.273622129,776327.273622129,776328.073422491,0.8,776329.758466041,776330.204550318,0.446084276540205,66,Equals to,Index,66,=,Index
203,Spatial,3421,3,1,63,800,5,5,1,m,m,-800,-400,-800,0,S,=,L,0.484276079032889,0.317642869033605,1.54017850867726,1.59479809969212,1.67336882773722,776331.741855242,776332.2436849,776332.2436849,776333.043546535,0.8,776334.613699679,776334.613699679,776336.21345314,1.6,776337.958557779,776338.732518304,0.773960525402799,77,Longer,Ring,77,L,Ring
203,Spatial,3421,3,1,64,400,1.66666666666667,1.25,2,l,l,-1600,-1200,-1600,-1200,L,S,=,0.34315942845695,0.40527314994456,1.76791306275165,1.88087541061849,1.91874747240982,776340.541905544,776340.90374369,776340.90374369,776343.303649147,2.4,776345.103933348,776345.103933348,776348.30351024,3.2,776350.341891364,776350.92463338,0.582742015365511,77,Equals to,Ring,66,L,Index
203,Spatial,3421,3,1,65,1200,2.5,5,1,r,r,0,800,0,1200,L,S,=,0.447298390263897,0.371751385928631,1.46457667254119,1.64578046578363,1.42046493011268,776352.991948836,776353.454108779,776353.454108779,776356.653690803,3.2,776358.153989344,776358.153989344,776360.553909237,2.4,776362.358670686,776362.820694222,0.462023535859771,66,Longer,Index,78,S,Middle
203,Spatial,3421,3,1,66,800,5,5,1,l,l,-1600,-400,-1600,-800,=,L,S,0.456256027131672,0.208708420945243,1.34815044636459,1.59985085206684,1.8071991638565,776364.392012162,776364.864073975,776364.864073975,776367.263905005,2.4,776368.634265644,776368.634265644,776370.234117591,1.6,776371.975342207,776372.49257456,0.517232352634892,77,Shorter,Ring,66,=,Index
203,Spatial,3421,3,1,67,800,7.5,3.33333333333333,1,l,l,-1600,-400,-1600,-800,L,S,=,0.288885421379581,0.348980427694858,1.99960151393996,1.87146252290394,1.31405610285962,776374.442096068,776374.744329872,776374.744329872,776376.343909779,1.6,776378.374467795,776378.374467795,776380.774221512,2.4,776382.792102436,776384.396492481,1.60439004504588,78,Shorter,Middle,66,L,Index
203,Spatial,3421,3,1,68,800,1.66666666666667,5,1,m,m,-800,-400,-800,0,=,L,S,0.329495171468744,0.45282648464873,1.18788424186671,1.58940627281628,1.81118466937947,776385.858781742,776386.204362934,776386.204362934,776388.604183378,2.4,776389.824438586,776389.824438586,776391.424342181,1.6,776393.158347473,776393.812484581,0.654137108824216,78,Longer,Middle,66,=,Index
203,Spatial,3421,3,1,69,1600,5,5,2,r,r,0,1200,0,1600,L,S,=,0.448142461377373,0.391801415757019,1.02976625457894,1.8288449098029,1.14839199314411,776395.775495166,776396.234643421,776396.234643421,776398.634483754,2.4,776399.68453754,776399.68453754,776402.884355354,3.2,776404.858899578,776405.284357477,0.425457899225876,66,Longer,Index,66,L,Index
203,Spatial,3421,3,1,70,800,3.75,3.33333333333333,1,r,r,0,1200,0,800,L,S,=,0.339921434027164,0.225746767755375,1.56248251264244,1.64422412069367,1.44453413272294,776406.592222993,776406.944742808,776406.944742808,776410.144548111,3.2,776411.734777355,776411.734777355,776414.134677358,2.4,776415.925575254,776416.492487944,0.566912689595483,78,Shorter,Middle,77,=,Ring
203,Spatial,3421,3,1,71,800,7.5,3.33333333333333,1,m,m,-800,400,-800,0,L,S,=,0.244565665714889,0.219800373908868,1.1414386000712,1.81139461129199,1.39798234779248,776418.092289239,776418.354825739,776418.354825739,776419.954686026,1.6,776421.134926015,776421.134926015,776423.534784955,2.4,776425.492343138,776425.884300246,0.391957107931376,78,Shorter,Middle,66,L,Index
203,Spatial,3421,3,1,72,1600,7.5,20,2,l,l,-1600,-400,-1600,0,=,L,S,0.205310564949647,0.449613724363674,1.89479256036335,1.68646579698618,1.38533876452997,776427.442342444,776427.665005199,776427.665005199,776429.264834689,1.6,776431.185090121,776431.185090121,776431.984868669,0.8,776433.809027942,776434.34834686,0.539318918366916,78,Longer,Middle,77,S,Ring
203,Spatial,3421,3,1,73,1200,2.5,5,1,l,l,-1600,-800,-1600,-400,=,L,S,0.20807165077245,0.346222643540706,1.94210738532626,1.87077049381086,1.18490830358297,776462.925845369,776463.145327053,776463.145327053,776466.3453906,3.2,776468.315560555,776468.315560555,776470.715427836,2.4,776472.725868723,776473.580484533,0.854615809395909,78,Longer,Middle,66,=,Index
203,Spatial,3421,3,1,74,400,1.25,1.25,2,r,r,0,400,0,400,L,S,=,0.371667676068293,0.483770972917258,1.28472400390003,1.25163489784891,1.32622307425414,776474.909280445,776475.295603792,776475.295603792,776478.496544092,3.2,776479.805659166,776479.805659166,776483.005609471,3.2,776484.409261678,776484.884498823,0.475237144739367,77,Equals to,Ring,66,L,Index
203,Spatial,3421,3,1,75,1600,10,20,2,m,m,-800,800,-800,800,=,L,S,0.373506861626316,0.368863477810205,1.49702546574971,1.6984250500676,1.3611392261977,776486.359328549,776486.745860739,776486.745860739,776488.345735462,1.6,776489.87594621,776489.87594621,776490.67575395,0.8,776492.526022698,776494.756320839,2.23029814125039,66,Equals to,Index,77,S,Ring
203,Spatial,3421,3,1,76,800,15,5,1,l,l,-1600,-400,-1600,-800,=,L,S,0.228030941937837,0.411271901874267,1.5766245670591,1.11901276947178,1.56310106636938,776496.259366692,776496.506157596,776496.506157596,776497.305608925,0.8,776498.91612183,776498.91612183,776500.515596193,1.6,776501.77602898,776502.316485141,0.540456161019392,77,Shorter,Ring,78,L,Middle
203,Spatial,3421,3,1,77,800,5,5,1,m,m,-800,-400,-800,0,S,=,L,0.372307331271168,0.267174695019836,1.06778566225882,1.19878072814583,1.06978060655463,776504.009411364,776504.396066421,776504.396066421,776505.195793319,0.8,776506.295966619,776506.295966619,776507.895786807,1.6,776509.242771666,776509.732354054,0.489582387497649,77,Longer,Ring,77,L,Ring
203,Spatial,3421,3,1,78,800,1.25,3.33333333333333,1,m,m,-800,-400,-800,0,L,S,=,0.219929205364076,0.418610994004417,1.46185686572657,1.11907276660436,1.41625519443219,776510.942784669,776511.176112802,776511.176112802,776514.375973924,3.2,776515.866026375,776515.866026375,776518.266088383,2.4,776519.526125942,776520.668385844,1.14225990138948,66,Longer,Index,77,=,Ring
203,Spatial,3421,3,1,79,800,7.5,3.33333333333333,1,m,m,-800,400,-800,0,=,L,S,0.385417988044456,0.407003224674209,1.33629714632142,1.16750899216909,1.17134600660945,776522.242829998,776522.646252085,776522.646252085,776524.246045646,1.6,776525.606333748,776525.606333748,776528.005959786,2.4,776529.326214473,776529.884386863,0.558172389515676,77,Shorter,Ring,78,L,Middle
203,Spatial,3421,3,1,80,800,1.25,3.33333333333333,1,m,m,-800,-400,-800,0,S,=,L,0.237608818711147,0.400081876166597,1.64382896278905,1.77459921880768,1.58012376733027,776531.192910985,776531.446398306,776531.446398306,776534.646159017,3.2,776536.316573647,776536.316573647,776538.716375484,2.4,776540.626223177,776541.020553775,0.394330597249791,77,Longer,Ring,66,S,Index
203,Spatial,3421,3,1,81,400,5,5,2,r,r,0,800,0,400,=,L,S,0.430772955117991,0.480296422631671,1.91807898199366,1.44085555381022,1.45349729598485,776542.759609058,776543.206510061,776543.206510061,776544.806247161,1.6,776546.756558839,776546.756558839,776547.556448383,0.8,776549.142985705,776549.868472524,0.725486819865182,77,Shorter,Ring,77,S,Ring
203,Spatial,3421,3,1,82,1600,10,20,2,m,m,-800,800,-800,800,S,=,L,0.44915077569622,0.46408475758634,1.92422321303564,1.63037814638929,1.23621186367828,776551.476370217,776551.936566852,776551.936566852,776553.536467882,1.6,776555.496598984,776555.496598984,776556.296414423,0.8,776558.076367201,NaN,NaN,78,Equals to,Middle,999,Missed,Missed
203,Spatial,3421,3,1,83,1200,3.33333333333333,7.5,1,m,m,-800,0,-800,400,L,S,=,0.499745427719631,0.492883959676669,1.76620943097594,1.00800114934414,1.24485825932483,776562.393047711,776562.906821142,776562.906821142,776565.306675591,2.4,776567.106855532,776567.106855532,776568.706638507,1.6,776569.859746073,776570.684389044,0.824642971507274,66,Longer,Index,66,L,Index
203,Spatial,3421,3,1,84,1200,20,7.5,1,r,r,0,1600,0,1200,L,S,=,0.425411039301822,0.408321807181079,1.09372403838167,1.86504412763473,1.81529337835875,776572.059792011,776572.496979455,776572.496979455,776573.296815746,0.8,776574.417171333,776574.417171333,776576.016655641,1.6,776578.026418353,776578.460448179,0.434029826195911,78,Shorter,Middle,66,L,Index
203,Spatial,3421,3,1,85,400,5,5,2,m,m,-800,0,-800,-400,S,=,L,0.26917263969409,0.41677872945222,1.4418102538206,1.98238998437432,1.09589133433264,776580.426451203,776580.707222401,776580.707222401,776582.306735261,1.6,776583.787146654,776583.787146654,776584.587009572,0.8,776586.726512626,776587.116349698,0.389837071998045,66,Shorter,Index,66,S,Index
203,Spatial,3421,3,1,86,1200,3.33333333333333,7.5,1,l,l,-1600,-800,-1600,-400,S,=,L,0.307859859992235,0.398802372475859,1.65160892719583,1.63748401737727,1.13957574243555,776588.359863919,776588.68714181,776588.68714181,776591.086983747,2.4,776592.777409997,776592.777409997,776594.376863828,1.6,776596.159857808,776596.556388143,0.396530335536227,77,Longer,Ring,66,S,Index
203,Spatial,3421,3,1,87,800,2.5,3.33333333333333,1,l,l,-1600,-1200,-1600,-800,=,L,S,0.23986863117484,0.432298956578246,1.28948214242312,1.712742797305,1.32106869234452,776597.843236326,776598.097427487,776598.097427487,776599.696979484,1.6,776601.017103195,776601.017103195,776603.417039448,2.4,776605.276619565,776606.044403147,0.767783581512049,78,Longer,Middle,78,L,Middle
203,Spatial,3421,3,1,88,1600,3.75,5,2,r,r,0,1200,0,1600,=,L,S,0.420569288660914,0.372674431493262,1.35311248175396,1.14918898305881,1.67434049106007,776607.509963624,776607.947503629,776607.947503629,776611.14714853,3.2,776612.527780603,776612.527780603,776615.727178166,3.2,776617.026637461,776617.356416951,0.329779490362853,78,Longer,Middle,66,=,Index
203,Spatial,3421,3,1,89,1200,10,5,1,l,l,-1600,0,-1600,-400,L,S,=,0.369828852193312,0.439138962195025,1.22797581265191,1.01423335466521,1.9996310649777,776619.176274842,776619.557590153,776619.557590153,776621.157480916,1.6,776622.417640024,776622.417640024,776624.81739727,2.4,776625.976727436,776628.220240736,2.24351330054924,78,Shorter,Middle,78,S,Middle
203,Spatial,3421,3,1,90,1200,20,7.5,1,l,l,-1600,0,-1600,-400,=,L,S,0.350529750231696,0.340106161564218,1.52542035831298,1.4305431401135,1.49045576257281,776630.376734295,776630.737850958,776630.737850958,776631.537386017,0.8,776633.097669692,776633.097669692,776634.697520356,1.6,776636.276752228,776638.948219053,2.67146682483144,77,Shorter,Ring,77,S,Ring
203,Spatial,3421,3,1,91,1200,6.66666666666667,7.5,1,r,r,0,1600,0,1200,S,=,L,0.311721601701595,0.44265578275076,1.90616033019951,1.0962891883848,1.68493984238324,776640.576798199,776640.907754034,776640.907754034,776643.307636393,2.4,776645.248042993,776645.248042993,776646.847804795,1.6,776648.093476526,776650.084397192,1.99092066602316,66,Shorter,Index,66,S,Index
203,Spatial,3421,3,1,92,1200,5,5,1,m,m,-800,800,-800,400,S,=,L,0.424510740430181,0.450750055524777,1.1178808273656,1.76503264179985,1.81106214095016,776651.92683408,776652.368044379,776652.368044379,776655.567887536,3.2,776656.708273348,776656.708273348,776659.107747326,2.4,776661.026861701,776661.428394942,0.401533240335993,66,Shorter,Index,78,=,Middle
203,Spatial,3421,3,1,93,400,2.5,5,2,r,r,0,400,0,400,=,L,S,0.431694459212971,0.253586587491657,1.00533916907348,1.4034712139381,1.21355460976096,776663.376944051,776663.828332799,776663.828332799,776665.428100054,1.6,776666.468251008,776666.468251008,776667.268077034,0.8,776668.810281191,776669.3962121,0.58593090926297,66,Equals to,Index,77,S,Ring
203,Spatial,3421,3,1,94,800,2.5,3.33333333333333,1,m,m,-800,-400,-800,0,=,L,S,0.35945181657024,0.252237235938224,1.12701055535619,1.26367673387481,1.44177547405973,776670.760264135,776671.138075648,776671.138075648,776672.737953579,1.6,776673.898393036,776673.898393036,776676.298292718,2.4,776677.710283207,776678.356385833,0.646102626342326,78,Longer,Middle,78,L,Middle
203,Spatial,3421,3,1,95,1200,3.33333333333333,7.5,1,l,l,-1600,-800,-1600,-400,S,=,L,0.22087829133183,0.212006763691199,1.73506991593624,1.21690822118091,1.13293279204664,776679.94367714,776680.178328901,776680.178328901,776682.578223772,2.4,776684.348154344,776684.348154344,776685.948154501,1.6,776687.31037209,776687.756330784,0.445958693744615,77,Longer,Ring,66,S,Index
203,Spatial,3421,3,1,96,1200,5,5,1,l,l,-1600,0,-1600,-400,S,=,L,0.203989451924024,0.230552095939875,1.38339684747776,1.1524279170927,1.1289705776537,776689.043735237,776689.258521665,776689.258521665,776692.458368671,3.2,776693.878493697,776693.878493697,776696.278290402,2.4,776697.577063181,776697.972327312,0.395264130551368,66,Shorter,Index,66,S,Index
