Subject,Task,SequenceOrder,ListNo,RunNo,TrialNo,Aud_Probe_Dist,Aud_Standard_Vel,Aud_Probe_Vel,Main_Control,Aud_Std_StartCode,Aud_Probe_StartCode,Aud_Std_StartPt,Aud_Std_EndPt,Aud_Probe_StartPt,Aud_Probe_EndPt,RespIndex,RespMiddle,RespRing,ISI_Cross_Std,ISI_Cross_Probe,ISI_Std_Probe,ISI_Probe_Response,ITI,TrialOnset,StdOnset,StdOnsetByStop,StdOffset,StdDur,ProbeOnset,ProbeOnsetByStop,ProbeOffset,ProbeDur,RespWinStart,RespTime,RT,CorrectKC,CorrectResponse,CorrectFinger,SubjRespKC,SubjResponse,SubjRespFinger
225,Temporal,3421,3,0,1,800,1.25,3.33333333333333,1,m,m,-800,-400,-800,0,=,L,S,0.450923601577373,0.244778745319596,1.08624240934134,1.6132813239111,1.26777117290061,701191.020489634,701191.482590343,701191.482590343,701194.682707326,3.2,701195.803082607,701195.803082607,701198.202672128,2.4,701199.970516357,701200.856594377,0.886078020324931,77,Shorter,Ring,77,S,Ring
225,Temporal,3421,3,0,2,1200,10,7.5,1,m,m,-800,0,-800,400,=,L,S,0.415714586015398,0.276780745649096,1.77236255217928,1.03216673230034,1.15756527107182,701202.270560692,701202.702953196,701202.702953196,701203.502950648,0.8,701205.313136547,701205.313136547,701206.912990345,1.6,701208.087224503,701208.712610027,0.62538552400656,78,Longer,Middle,78,L,Middle
225,Temporal,3421,3,0,3,800,1.25,3.33333333333333,1,m,m,-800,-400,-800,0,=,L,S,0.478944243077791,0.393088476017928,1.47268351171728,1.08054216896831,1.9065206357394,701210.020652922,701210.513202889,701210.513202889,701213.713133166,3.2,701215.213335316,701215.213335316,701217.613247884,2.4,701218.837302618,701219.264627135,0.427324516465887,77,Shorter,Ring,66,=,Index
225,Temporal,3421,3,0,4,1600,7.5,20,2,l,l,-1600,-400,-1600,0,L,S,=,0.38412698752317,0.294638558717156,1.32935725663692,1.99682666327344,1.52027128267523,701221.320728696,701221.723318679,701221.723318679,701223.323292136,1.6,701224.683387793,701224.683387793,701225.483186669,0.8,701227.637356898,701228.128622418,0.491265519638546,78,Shorter,Middle,78,S,Middle
225,Temporal,3421,3,0,5,800,5,5,1,m,m,-800,-400,-800,0,L,S,=,0.425108822490931,0.291936921321454,1.32519294171048,1.10966204675359,1.22066072688174,701229.804116598,701230.243596584,701230.243596584,701231.043417916,0.8,701232.393451934,701232.393451934,701233.993338453,1.6,701235.237411884,701235.696674821,0.459262937773019,66,Longer,Index,66,L,Index
225,Temporal,3421,3,0,6,800,1.66666666666667,5,1,r,r,0,400,0,800,S,=,L,0.227676228618548,0.320963356340116,1.3868124076999,1.92380452199647,1.10290243323585,701237.070820926,701237.313623525,701237.313623525,701239.71351877,2.4,701241.123550812,701241.123550812,701242.723338203,1.6,701244.787469532,701245.312554015,0.525084483320825,66,Shorter,Index,66,S,Index
225,Temporal,3421,3,0,7,800,7.5,3.33333333333333,1,r,r,0,1200,0,800,S,=,L,0.323952994215544,0.459453707746927,1.87254543378303,1.11982790256797,1.16034222763039,701246.57087835,701246.913704495,701246.913704495,701248.513562463,1.6,701250.403862285,701250.403862285,701252.803729941,2.4,701254.070873538,701254.520675699,0.449802161310799,77,Longer,Ring,77,L,Ring
225,Temporal,3421,3,0,8,400,3.33333333333333,1.25,2,r,r,0,800,0,400,L,S,=,0.379346683055663,0.216895590427864,1.85043638748272,1.62019617712448,1.52654233575461,701255.837309035,701256.233812118,701256.233812118,701258.633762862,2.4,701260.524066854,701260.524066854,701263.72393682,3.2,701265.487600034,701265.880625025,0.393024991150014,66,Longer,Index,66,L,Index
225,Temporal,3421,3,0,9,1200,2.5,5,1,r,r,0,800,0,1200,L,S,=,0.350570844535624,0.403582353118188,1.73454751020324,1.56178163894396,1.76944372615425,701267.570963683,701267.93391856,701267.93391856,701271.1338822,3.2,701272.904197523,701272.904197523,701275.304070312,2.4,701277.021071897,701277.448484306,0.427412409102544,78,Shorter,Middle,78,S,Middle
225,Temporal,3421,3,0,10,1200,20,7.5,1,r,r,0,1600,0,1200,S,=,L,0.220418235351225,0.406683965358178,1.24223096723631,1.57613311559469,1.14251533434968,701279.371051006,701279.604177569,701279.604177569,701280.404056646,0.8,701281.674281823,701281.674281823,701283.274192082,1.6,701284.987731884,701285.40876964,0.421037756488658,77,Longer,Ring,77,L,Ring
225,Temporal,3421,3,0,11,400,10,5,2,r,r,0,800,0,400,S,=,L,0.340204710617372,0.478602003378164,1.48398870351423,1.49386396656254,1.90931273263226,701286.704481542,701287.064395856,701287.064395856,701287.86426178,0.8,701289.384464661,701289.384464661,701290.184203869,0.8,701291.837833037,701292.744665862,0.906832825159654,78,Equals to,Middle,78,=,Middle
225,Temporal,3421,3,0,12,800,1.25,3.33333333333333,1,l,l,-1600,-1200,-1600,-800,=,L,S,0.29033679932006,0.218069968284802,1.21896287710309,1.86454137203403,1.39431380143689,701294.821188677,701295.124361479,701295.124361479,701298.324293039,3.2,701299.574570417,701299.574570417,701301.974403747,2.4,701303.987896134,701304.416604912,0.428708777762949,77,Shorter,Ring,66,=,Index
225,Temporal,3421,3,0,13,1200,10,7.5,1,l,l,-1600,-800,-1600,-400,S,=,L,0.307874708586519,0.224713517582118,1.01545918791892,1.26661417633113,1.55958335353586,701305.954644028,701306.274542443,701306.274542443,701307.074440768,0.8,701308.114657855,701308.114657855,701309.714564906,1.6,701311.137952956,701311.624817704,0.486864748643711,77,Longer,Ring,78,=,Middle
225,Temporal,3421,3,0,14,1200,2.5,5,1,m,m,-800,0,-800,400,=,L,S,0.389195802681755,0.36088056604037,1.33305827611907,1.88566043701398,1.86545164609087,701313.337968604,701313.744708163,701313.744708163,701316.944475472,3.2,701318.304673465,701318.304673465,701320.704530856,2.4,701322.737965267,701325.504677937,2.76671266974881,77,Shorter,Ring,66,=,Index
225,Temporal,3421,3,0,15,1600,5,5,2,r,r,0,1200,0,1600,S,=,L,0.322075490587955,0.334859460546868,1.68520535788555,1.81041752500526,1.26087794097775,701327.521406487,701327.855111585,701327.855111585,701330.254988865,2.4,701331.975101537,701331.975101537,701335.174981769,3.2,701337.138117653,701337.576845591,0.438727938220836,77,Longer,Ring,77,L,Ring
225,Temporal,3421,3,0,16,1200,20,7.5,1,m,m,-800,800,-800,400,=,L,S,0.236898809539428,0.497132632374774,1.36565796954434,1.93289339516511,1.94936099316354,701338.971479628,701339.225242209,701339.225242209,701340.02507092,0.8,701341.415083623,701341.415083623,701343.014944158,1.6,701345.104777193,701346.056538173,0.951760979252867,78,Longer,Middle,78,L,Middle
225,Temporal,3421,3,0,17,800,2.5,3.33333333333333,1,l,l,-1600,-1200,-1600,-800,S,=,L,0.293843557658574,0.4537366872105,1.14714837437172,1.5743155491479,1.55244889082143,701348.154830992,701348.465079998,701348.465079998,701350.065058909,1.6,701351.255186845,701351.255186845,701353.655205278,2.4,701355.371091106,701355.816613446,0.445522339781746,77,Longer,Ring,77,L,Ring
225,Temporal,3421,3,0,18,1600,3.75,5,2,r,r,0,1200,0,1600,=,L,S,0.445557254347532,0.488837103840935,1.89577646472814,1.57940596838112,1.73576144709981,701357.521592231,701357.985629302,701357.985629302,701361.185115588,3.2,701363.115507981,701363.115507981,701366.315509476,3.2,701368.054925179,701368.504684674,0.449759494629689,66,Equals to,Index,78,L,Middle
225,Temporal,3421,3,0,19,400,1.25,1.25,2,r,r,0,400,0,400,L,S,=,0.436020315011285,0.356739756583213,1.41751849495747,1.57815606752815,1.25143546522567,701370.388348337,701370.835452507,701370.835452507,701374.035422243,3.2,701375.485726505,701375.485726505,701378.685574656,3.2,701380.421737433,701381.51264153,1.09090409695636,77,Equals to,Ring,77,=,Ring
225,Temporal,3421,3,0,20,800,7.5,3.33333333333333,1,m,m,-800,400,-800,0,=,L,S,0.433597480244013,0.335212309308054,1.8405629174179,1.13880662470675,1.73741960535003,701382.921765977,701383.365905936,701383.365905936,701384.965761658,1.6,701386.845736783,701386.845736783,701389.245591607,2.4,701390.521738837,701391.352708501,0.830969663104042,78,Longer,Middle,78,L,Middle
