Subject,Task,SequenceOrder,ListNo,RunNo,TrialNo,Aud_Probe_Dist,Aud_Standard_Vel,Aud_Probe_Vel,Main_Control,Aud_Std_StartCode,Aud_Probe_StartCode,Aud_Std_StartPt,Aud_Std_EndPt,Aud_Probe_StartPt,Aud_Probe_EndPt,RespIndex,RespMiddle,RespRing,ISI_Cross_Std,ISI_Cross_Probe,ISI_Std_Probe,ISI_Probe_Response,ITI,TrialOnset,StdOnset,StdOnsetByStop,StdOffset,StdDur,ProbeOnset,ProbeOnsetByStop,ProbeOffset,ProbeDur,RespWinStart,RespTime,RT,CorrectKC,CorrectResponse,CorrectFinger,SubjRespKC,SubjResponse,SubjRespFinger
219,Temporal,3421,1,4,1,1600,20,20,2,r,r,0,1600,0,1600,S,=,L,0.446413045844398,0.286757891673913,1.80570623609603,1.72631294189583,1.37361263752499,198525.302713088,198525.760150937,198525.760150937,198526.560953924,0.8,198528.391461036,198528.391461036,198529.191258629,0.8,198531.052760583,198531.446703212,0.393942629074445,78,Equals to,Middle,78,=,Middle
219,Temporal,3421,1,4,2,1600,7.5,20,2,r,r,0,1200,0,1600,=,L,S,0.222720501281518,0.392538070391532,1.6855353346666,1.22118610325002,1.96934349231024,198532.969497489,198533.211375215,198533.211375215,198534.811282586,1.6,198536.52127395,198536.52127395,198537.321290972,0.8,198538.686123318,198539.118833461,0.432710143068107,77,Shorter,Ring,77,S,Ring
219,Temporal,3421,1,4,3,800,5,5,1,l,l,-1600,-400,-1600,-800,L,S,=,0.337173214598215,0.373963611498828,1.70980244890795,1.64299602990561,1.04790856452143,198541.236193156,198541.591470916,198541.591470916,198543.991374503,2.4,198545.731392628,198545.731392628,198547.331274977,1.6,198549.119514203,198549.518709824,0.399195620673709,78,Shorter,Middle,77,=,Ring
219,Temporal,3421,1,4,4,1600,10,20,2,r,r,0,1600,0,1600,L,S,=,0.305685767870562,0.379429198923921,1.24030850012761,1.82030320396423,1.91729822679834,198550.719550582,198551.041442782,198551.041442782,198552.641414956,1.6,198553.911766208,198553.911766208,198554.711645927,0.8,198556.669557415,198557.286675546,0.617118131543975,78,Shorter,Middle,78,S,Middle
219,Temporal,3421,1,4,5,400,5,5,2,m,m,-800,0,-800,-400,=,L,S,0.467847443017539,0.436446081968954,1.02443532034213,1.12083426583362,1.52055690520477,198559.352935308,198559.83191406,198559.83191406,198561.431710755,1.6,198562.491968352,198562.491968352,198563.29177589,0.8,198564.552949359,198565.990688397,1.43773903770489,77,Shorter,Ring,66,=,Index
219,Temporal,3421,1,4,6,1600,5,5,2,l,l,-1600,-400,-1600,0,S,=,L,0.225066969301218,0.243344920743502,1.64250900712068,1.23370574177892,1.78112492201861,198567.653038029,198567.892003833,198567.892003833,198570.291838126,2.4,198571.96186139,198571.96186139,198575.161789742,3.2,198576.536344318,198577.230814908,0.69447058980586,77,Longer,Ring,78,=,Middle
219,Temporal,3421,1,4,7,1200,10,7.5,1,m,m,-800,0,-800,400,L,S,=,0.23686643431223,0.230634653926303,1.19543521758356,1.25909085668978,1.87859778790206,198579.169728082,198579.422127477,198579.422127477,198580.222002383,0.8,198581.451980684,198581.451980684,198583.051854371,1.6,198584.453058303,198585.302944707,0.84988640397205,66,Longer,Index,78,S,Middle
219,Temporal,3421,1,4,8,400,1.66666666666667,1.25,2,r,r,0,400,0,400,=,L,S,0.316395776349186,0.20352428034669,1.29699435277007,1.42523639956392,1.697389292006,198587.336442227,198587.672096198,198587.672096198,198590.071951343,2.4,198591.402157542,198591.402157542,198594.601998957,3.2,198596.169801225,198596.518585032,0.348783806926804,78,Longer,Middle,78,L,Middle
219,Temporal,3421,1,4,9,1200,2.5,5,1,r,r,0,800,0,1200,S,=,L,0.358993576721441,0.314608595568157,1.49257668288708,1.44605645485088,1.90573821944801,198598.369867246,198598.742513235,198598.742513235,198601.942044434,3.2,198603.462315646,198603.462315646,198605.862218591,2.4,198607.453201702,198607.926774982,0.473573280527489,66,Shorter,Index,78,=,Middle
219,Temporal,3421,1,4,10,800,2.5,3.33333333333333,1,m,m,-800,-400,-800,0,S,=,L,0.335060460244986,0.483028645208324,1.34638066574843,1.11068283614184,1.72619502946615,198609.986627362,198610.332404245,198610.332404245,198611.932298464,1.6,198613.312639624,198613.312639624,198615.712476804,2.4,198616.969944046,198617.454774916,0.484830869914731,77,Longer,Ring,78,=,Middle
219,Temporal,3421,1,4,11,800,5,5,1,m,m,-800,400,-800,0,L,S,=,0.422031954862951,0.462800152342905,1.56512024883366,1.15768745129952,1.63752044750165,198619.320024832,198619.762540914,198619.762540914,198622.162446745,2.4,198623.752450402,198623.752450402,198625.352383759,1.6,198626.653363322,198626.966779012,0.313415689684916,78,Shorter,Middle,78,S,Middle
219,Temporal,3421,1,4,12,800,15,5,1,r,r,0,1200,0,800,S,=,L,0.433523896417822,0.307445707892127,1.53437537316066,1.21522390483411,1.23081930422425,198628.75341125,198629.2027389,198629.2027389,198630.002584292,0.8,198631.572889093,198631.572889093,198633.172793577,1.6,198634.536703937,198635.086816122,0.550112184515456,77,Longer,Ring,78,=,Middle
219,Temporal,3421,1,4,13,1200,10,5,1,l,l,-1600,0,-1600,-400,L,S,=,0.215293707824865,0.271627172593545,1.00224777089816,1.5888584147653,1.81932904565302,198636.470102201,198636.702901226,198636.702901226,198638.30278582,1.6,198639.332864596,198639.332864596,198641.732781335,2.4,198643.470090011,198643.910749631,0.440659620566294,66,Longer,Index,66,L,Index
219,Temporal,3421,1,4,14,400,2.5,1.25,2,m,m,-800,0,-800,-400,=,L,S,0.266820810747128,0.250561729723246,1.39313474818279,1.38904580606939,1.32356202423629,198645.886851795,198646.173164149,198646.173164149,198649.37273224,3.2,198650.792922803,198650.792922803,198653.992954453,3.2,198655.520163378,198656.030736697,0.510573318373645,66,Equals to,Index,78,L,Middle
219,Temporal,3421,1,4,15,1600,20,20,2,r,r,0,1600,0,1600,L,S,=,0.455803453624291,0.483155650897317,1.62801989912463,1.18964091941876,1.36321414955848,198657.503576944,198657.973274248,198657.973274248,198658.77282739,0.8,198660.433187452,198660.433187452,198661.232987611,0.8,198662.570216214,198663.086760623,0.516544408979826,77,Equals to,Ring,77,=,Ring
219,Temporal,3421,1,4,16,800,7.5,3.33333333333333,1,l,l,-1600,-400,-1600,-800,=,L,S,0.343681441182744,0.360958726643403,1.08181187955464,1.52230956232132,1.85424860495639,198664.62026873,198664.983023426,198664.983023426,198666.58305206,1.6,198667.703348103,198667.703348103,198670.10321993,2.4,198671.770274857,198672.110780364,0.340505507192574,78,Longer,Middle,78,L,Middle
219,Temporal,3421,1,4,17,800,1.66666666666667,5,1,m,m,-800,-400,-800,0,=,L,S,0.37642779902622,0.256185670022323,1.21149450329207,1.54873323900495,1.08174637070108,198674.120351817,198674.513269936,198674.513269936,198676.913287728,2.4,198678.143328906,198678.143328906,198679.743370694,1.6,198681.437048873,198682.606709064,1.16966019067331,77,Shorter,Ring,66,=,Index
219,Temporal,3421,1,4,18,1600,5,5,2,l,l,-1600,-400,-1600,0,S,=,L,0.431188077224264,0.263000613859989,1.91103739568971,1.64331000336976,1.05323686429934,198683.837087039,198684.283507901,198684.283507901,198686.683332891,2.4,198688.633704841,198688.633704841,198691.833499419,3.2,198693.62039705,198693.958827288,0.338430238043657,77,Longer,Ring,78,=,Middle
219,Temporal,3421,1,4,19,800,5,5,1,m,m,-800,-400,-800,0,=,L,S,0.291396715049543,0.436855857361494,1.37415044763754,1.40059488015409,1.38191947550762,198695.170501856,198695.473716634,198695.473716634,198696.27360726,0.8,198697.673850024,198697.673850024,198699.273674628,1.6,198700.820512819,198701.278765848,0.4582530290063,78,Longer,Middle,66,=,Index
219,Temporal,3421,1,4,20,1200,5,5,1,l,l,-1600,-800,-1600,-400,=,L,S,0.27020474864167,0.432340815311213,1.33405891789785,1.1840743446467,1.64383033121052,198702.820527874,198703.10389013,198703.10389013,198704.703784991,1.6,198706.073797925,198706.073797925,198708.473695737,2.4,198709.803836858,198710.302800025,0.498963167425245,78,Longer,Middle,78,L,Middle
219,Temporal,3421,1,4,21,800,2.5,3.33333333333333,1,r,r,0,400,0,800,L,S,=,0.476004376479053,0.312425327089058,1.7509545519752,1.89694714701779,1.48432145311697,198712.087265245,198712.574070607,198712.574070607,198714.173952635,1.6,198715.953992113,198715.953992113,198718.353798817,2.4,198720.403964725,198720.902781226,0.498816501727561,66,Longer,Index,77,=,Ring
219,Temporal,3421,1,4,22,400,1.25,1.25,2,r,r,0,400,0,400,L,S,=,0.222769496047173,0.321940876897744,1.9406840371278,1.94673202257064,1.202636236482,198722.570654751,198722.803996252,198722.803996252,198726.003893165,3.2,198727.974144905,198727.974144905,198731.173967713,3.2,198733.270642817,198734.102792711,0.832149894151371,77,Equals to,Ring,78,S,Middle
219,Temporal,3421,1,4,23,1600,6.66666666666667,5,2,m,m,-800,800,-800,800,S,=,L,0.225975037231321,0.205368104134287,1.58374167201005,1.17878272985374,1.09064334632835,198735.454077896,198735.694090074,198735.694090074,198738.093983394,2.4,198739.704252124,198739.704252124,198742.904247523,3.2,198744.237377879,198744.798741236,0.561363357846858,77,Longer,Ring,77,L,Ring
219,Temporal,3421,1,4,24,1200,10,7.5,1,m,m,-800,0,-800,400,S,=,L,0.325677462650595,0.410500277520677,1.78283919427387,1.86528861486807,1.13732285677206,198746.037443066,198746.374561178,198746.374561178,198747.174412666,0.8,198748.984517401,198748.984517401,198750.584481234,1.6,198752.603676521,198753.334877354,0.731200833048206,77,Longer,Ring,78,=,Middle
219,Temporal,3421,1,4,25,400,3.33333333333333,1.25,2,l,l,-1600,-800,-1600,-1200,S,=,L,0.405509012122249,0.302458170932388,1.61964120325064,1.11996049291762,1.57694071468997,198755.420856503,198755.844590878,198755.844590878,198758.244493181,2.4,198759.884563148,198759.884563148,198763.084470006,3.2,198764.354187078,198764.758641608,0.404454530478688,77,Longer,Ring,77,L,Ring
219,Temporal,3421,1,4,26,1200,10,5,1,l,l,-1600,0,-1600,-400,L,S,=,0.49305729459865,0.380749286538529,1.63381342019529,1.51372009915937,1.89573202784154,198766.487549964,198766.994556905,198766.994556905,198768.594533249,1.6,198770.254924749,198770.254924749,198772.654804917,2.4,198774.32089455,198775.334704442,1.01380989135941,66,Longer,Index,78,S,Middle
219,Temporal,3421,1,4,27,800,1.25,3.33333333333333,1,r,r,0,400,0,800,=,L,S,0.309959927223441,0.38189744884635,1.74794874979068,1.62854492352144,1.84510246328748,198777.387609209,198777.714774755,198777.714774755,198780.914731659,3.2,198782.704938319,198782.704938319,198785.104748873,2.4,198786.887710333,198787.98288328,1.09517294709804,77,Shorter,Ring,66,=,Index
219,Temporal,3421,1,4,28,400,5,5,2,r,r,0,400,0,400,L,S,=,0.320687650175521,0.358611327882247,1.84649710162901,1.63701103871503,1.68285293262026,198789.971070703,198790.305177125,198790.305177125,198791.105029575,0.8,198792.985097412,198792.985097412,198793.784918744,0.8,198795.57102624,198796.326950654,0.755924413882894,77,Equals to,Ring,77,=,Ring
219,Temporal,3421,1,4,29,800,1.66666666666667,5,1,l,l,-1600,-1200,-1600,-800,S,=,L,0.344962812191547,0.448948534909734,1.07768600958601,1.08456622400824,1.67538089528528,198798.171085075,198798.535285626,198798.535285626,198800.935154566,2.4,198802.045422974,198802.045422974,198803.644966556,1.6,198804.871140485,198805.230857254,0.359716768492945,66,Shorter,Index,66,S,Index
219,Temporal,3421,1,4,30,800,1.25,3.33333333333333,1,r,r,0,400,0,800,S,=,L,0.33449957261125,0.306821875364901,1.58673664080708,1.6489213662612,1.32914100381784,198807.071120876,198807.425512902,198807.425512902,198810.625170818,3.2,198812.235461682,198812.235461682,198814.635324527,2.4,198816.437814426,198816.790907248,0.353092821518658,66,Shorter,Index,66,S,Index
219,Temporal,3421,1,4,31,800,15,5,1,m,m,-800,400,-800,0,S,=,L,0.325604455657386,0.219290407704755,1.21239296845159,1.99745046953039,1.51313518254876,198818.254567742,198818.595601244,198818.595601244,198819.395449845,0.8,198820.63565981,198820.63565981,198822.235525156,1.6,198824.387927005,198825.166845033,0.778918027703185,77,Longer,Ring,78,=,Middle
219,Temporal,3421,1,4,32,800,5,5,1,m,m,-800,400,-800,0,=,L,S,0.226529329717214,0.368372082031526,1.72522119160224,1.94300503879088,1.19182950286026,198826.837930749,198827.075426959,198827.075426959,198829.475376099,2.4,198831.22570673,198831.22570673,198832.825568548,1.6,198834.904599854,198835.406978281,0.502378427190706,77,Shorter,Ring,77,S,Ring
219,Temporal,3421,1,4,33,800,5,5,1,l,l,-1600,-1200,-1600,-800,L,S,=,0.40593138220263,0.279949623727714,1.97264417329714,1.92829109567382,1.56088125622989,198836.738058573,198837.155767368,198837.155767368,198837.955621423,0.8,198839.955785718,198839.955785718,198841.555623155,1.6,198843.638000107,198844.038939608,0.400939501210814,66,Longer,Index,66,L,Index
219,Temporal,3421,1,4,34,1200,5,5,1,r,r,0,1600,0,1200,S,=,L,0.35744510181566,0.332868137099976,1.19759533485199,1.60942842621556,1.38354132818832,198845.754697025,198846.125807013,198846.125807013,198849.32568532,3.2,198850.545810824,198850.545810824,198852.945892135,2.4,198854.688054547,198855.062883639,0.374829092645086,66,Shorter,Index,78,=,Middle
219,Temporal,3421,1,4,35,1200,5,5,1,m,m,-800,800,-800,400,S,=,L,0.359705796144197,0.383801195939112,1.95843497509935,1.52110418080747,1.68244415657538,198856.604822426,198856.976252254,198856.976252254,198860.175791153,3.2,198862.166336196,198862.166336196,198864.56585514,2.4,198866.238199477,198866.598813481,0.360614004574018,66,Shorter,Index,78,=,Middle
219,Temporal,3421,1,4,36,400,1.25,1.25,2,l,l,-1600,-1200,-1600,-1200,=,L,S,0.382684676473979,0.37892462554107,1.27069559038419,1.67588099963898,1.16342554543244,198868.504880042,198868.906292361,198868.906292361,198872.106129605,3.2,198873.40621184,198873.40621184,198876.606132493,3.2,198878.421532754,198878.726899839,0.305367084278259,66,Equals to,Index,78,L,Middle
219,Temporal,3421,1,4,37,1200,20,7.5,1,r,r,0,1600,0,1200,S,=,L,0.471096727810012,0.292104169535838,1.52191305097298,1.46640359692213,1.82739540110332,198880.038226,198880.526535106,198880.526535106,198881.32631698,0.8,198882.876496257,198882.876496257,198884.476369944,1.6,198886.088312593,198886.48688272,0.398570127959829,77,Longer,Ring,77,L,Ring
219,Temporal,3421,1,4,38,1200,20,7.5,1,l,l,-1600,0,-1600,-400,=,L,S,0.26253235462344,0.428729967667204,1.86498828455223,1.38226878343463,1.4655227828614,198888.455013272,198888.736668861,198888.736668861,198889.536477041,0.8,198891.436469899,198891.436469899,198893.036453943,1.6,198894.571636405,198894.974869321,0.403232915850822,78,Longer,Middle,78,L,Middle
219,Temporal,3421,1,4,39,400,10,5,2,r,r,0,800,0,400,=,L,S,0.4726520364252,0.248443288489783,1.17737380024852,1.46341601393605,1.14014110383198,198896.571648177,198897.066715576,198897.066715576,198897.866523435,0.8,198899.07654303,198899.07654303,198899.876516101,0.8,198901.488400958,198902.262873951,0.774472992983647,66,Equals to,Index,66,=,Index
219,Temporal,3421,1,4,40,1200,6.66666666666667,7.5,1,m,m,-800,800,-800,400,L,S,=,0.28799683351943,0.329469607726561,1.73715192292409,1.58549676563863,1.38147704504616,198903.555109593,198903.856858994,198903.856858994,198906.256728575,2.4,198908.026955677,198908.026955677,198909.626734407,1.6,198911.355068642,198911.950909891,0.595841249130899,78,Shorter,Middle,77,=,Ring
219,Temporal,3421,1,4,41,800,3.75,3.33333333333333,1,m,m,-800,400,-800,0,L,S,=,0.369183564033666,0.392152622630546,1.67796503395155,1.69966862533946,1.51444460288403,198913.488490902,198913.876766372,198913.876766372,198917.076655586,3.2,198918.777131637,198918.777131637,198921.176698702,2.4,198923.021880192,198923.798968364,0.777088172209915,78,Shorter,Middle,78,S,Middle
219,Temporal,3421,1,4,42,1200,6.66666666666667,7.5,1,l,l,-1600,0,-1600,-400,L,S,=,0.373696297381787,0.208837140091434,1.90894117999314,1.69540069628516,1.34349082993994,198925.471854102,198925.857189099,198925.857189099,198928.257071513,2.4,198930.19718806,198930.19718806,198931.797041216,1.6,198933.638544187,198933.926891113,0.288346925721271,78,Shorter,Middle,78,S,Middle
219,Temporal,3421,1,4,43,1200,20,7.5,1,l,l,-1600,0,-1600,-400,S,=,L,0.207862291496262,0.280453734234139,1.31003930761899,1.82269019769633,1.23083422337318,198935.421963592,198935.64740181,198935.64740181,198936.446893358,0.8,198937.777202214,198937.777202214,198939.377024252,1.6,198941.338617907,198941.679092618,0.340474710188573,77,Longer,Ring,78,=,Middle
219,Temporal,3421,1,4,44,800,7.5,3.33333333333333,1,m,m,-800,400,-800,0,L,S,=,0.326004711204037,0.313968384854007,1.39157382711236,1.38359889173545,1.75457828931275,198943.072003035,198943.41728176,198943.41728176,198945.017211908,1.6,198946.44737621,198946.44737621,198948.84728108,2.4,198950.371992881,198950.814922497,0.442929616634501,66,Longer,Index,77,=,Ring
219,Temporal,3421,1,4,45,1200,3.33333333333333,7.5,1,l,l,-1600,-800,-1600,-400,=,L,S,0.47473787565636,0.24762540189727,1.56904466332,1.56432159571999,1.12212825150641,198952.722067916,198953.207683423,198953.207683423,198955.60719916,2.4,198957.207391493,198957.207391493,198958.807217702,1.6,198960.522096686,198961.270870907,0.748774221137865,77,Shorter,Ring,78,L,Middle
219,Temporal,3421,1,4,46,1600,15,20,2,r,r,0,1200,0,1600,S,=,L,0.381084002733658,0.407319418542248,1.49290974488668,1.24429328972543,1.03501116686243,198962.53879268,198962.937551324,198962.937551324,198963.737393829,0.8,198965.26754254,198965.26754254,198966.067373497,0.8,198967.472083796,198967.790918476,0.318834679754218,78,Equals to,Middle,78,=,Middle
219,Temporal,3421,1,4,47,800,3.75,3.33333333333333,1,r,r,0,1200,0,800,L,S,=,0.416555022554632,0.306141621022581,1.29806066908061,1.78463662913164,1.02533627936195,198968.972163676,198969.407585835,198969.407585835,198972.607488844,3.2,198973.937594953,198973.937594953,198976.337625576,2.4,198978.272208628,198978.69491875,0.42271012213314,78,Shorter,Middle,77,=,Ring
219,Temporal,3421,1,4,48,400,2.5,1.25,2,l,l,-1600,-800,-1600,-1200,L,S,=,0.382109296639945,0.259227012548174,1.62578443836505,1.73325227704413,1.72173100947889,198979.888853921,198980.288001377,198980.288001377,198983.487879684,3.2,198985.148069721,198985.148069721,198988.347882905,3.2,198990.222225751,198990.582936661,0.360710910405032,77,Equals to,Ring,66,L,Index
219,Temporal,3421,1,4,49,800,5,5,1,r,r,0,400,0,800,S,=,L,0.392363610315823,0.38979893580275,1.2250081831337,1.27192505045001,1.01275555136767,198993.922318078,198994.328124424,198994.328124424,198995.127900202,0.8,198996.377852608,198996.377852608,198997.977861032,1.6,198999.388945992,198999.774930979,0.385984987748088,77,Longer,Ring,77,L,Ring
219,Temporal,3421,1,4,50,1200,3.33333333333333,7.5,1,r,r,0,800,0,1200,L,S,=,0.278844111720375,0.43191238055237,1.30248696841852,1.79106572804402,1.06471687095967,199000.938980221,199001.228131674,199001.228131674,199003.628126047,2.4,199004.95817794,199004.95817794,199006.558139206,1.6,199008.489004185,199008.823171604,0.334167418943252,78,Shorter,Middle,78,S,Middle
219,Temporal,3421,1,4,51,400,2.5,5,2,l,l,-1600,-1200,-1600,-1200,S,=,L,0.35653479940247,0.379112165067364,1.92677163988,1.55851603648257,1.05854009106481,199010.039039377,199010.408418959,199010.408418959,199012.00824613,1.6,199013.968347368,199013.968347368,199014.768094916,0.8,199016.472387917,199016.918969866,0.446581949247047,66,Shorter,Index,66,S,Index
219,Temporal,3421,1,4,52,800,1.66666666666667,5,1,r,r,0,400,0,800,S,=,L,0.374121369059461,0.203117099154754,1.62647465525712,1.72047698252581,1.01192041113038,199018.139135746,199018.528383247,199018.528383247,199020.928234542,2.4,199022.578337276,199022.578337276,199024.1781776,1.6,199026.039114766,199026.471170472,0.432055706653045,66,Shorter,Index,78,=,Middle
219,Temporal,3421,1,4,53,800,2.5,3.33333333333333,1,r,r,0,400,0,800,L,S,=,0.409204983942492,0.241138090769621,1.56546959121939,1.40232569686432,1.7269963107041,199027.639154673,199028.068498915,199028.068498915,199029.668486808,1.6,199031.268497889,199031.268497889,199033.66837934,2.4,199035.22238936,199036.310949363,1.08856000253581,66,Longer,Index,77,=,Ring
219,Temporal,3421,1,4,54,800,5,5,1,m,m,-800,400,-800,0,S,=,L,0.202751521496727,0.204625755516992,1.0294741967875,1.20067236636757,1.88959752075453,199038.189228266,199038.40891139,199038.40891139,199040.808419427,2.4,199041.868669967,199041.868669967,199043.468500667,1.6,199044.822563363,199045.62296443,0.800401066866471,66,Shorter,Index,78,=,Middle
219,Temporal,3421,1,4,55,800,5,5,1,l,l,-1600,-1200,-1600,-800,L,S,=,0.460448951278143,0.402673358029215,1.46768570419274,1.22318784731684,1.62323446105404,199047.65598203,199048.128924248,199048.128924248,199048.928737881,0.8,199050.418977841,199050.418977841,199052.018830035,1.6,199053.389343941,199053.926992486,0.537648545607226,66,Longer,Index,66,L,Index
219,Temporal,3421,1,4,56,1200,6.66666666666667,7.5,1,l,l,-1600,0,-1600,-400,L,S,=,0.260500287789305,0.418516890141365,1.53487571371614,1.69798100656038,1.46517183266815,199055.706003748,199055.978942501,199055.978942501,199058.378884263,2.4,199059.9390777,199059.9390777,199061.53893246,1.6,199063.389372979,199064.126944622,0.737571643141564,78,Shorter,Middle,66,L,Index
219,Temporal,3421,1,4,57,800,7.5,3.33333333333333,1,r,r,0,1200,0,800,S,=,L,0.408244003411653,0.470927479279739,1.64847723075742,1.48408340460952,1.24506565149882,199065.756046319,199066.178851971,199066.178851971,199067.778836977,1.6,199069.449317064,199069.449317064,199071.848924228,2.4,199073.489474826,199073.886906973,0.397432147612562,77,Longer,Ring,77,L,Ring
219,Temporal,3421,1,4,58,1200,10,7.5,1,m,m,-800,0,-800,400,=,L,S,0.391758658056129,0.302996210852765,1.27637837119871,1.02245401636611,1.34360796131438,199075.27281946,199075.679097385,199075.679097385,199076.478962988,0.8,199077.779296089,199077.779296089,199079.379167852,1.6,199080.539461232,199081.063090877,0.523629645467736,78,Longer,Middle,78,L,Middle
219,Temporal,3421,1,4,59,1200,2.5,5,1,r,r,0,800,0,1200,S,=,L,0.232326673959843,0.393172745723199,1.93698195211658,1.51757010326663,1.56210011096565,199082.572822411,199082.819246224,199082.819246224,199086.019256701,3.2,199087.989370817,199087.989370817,199090.389256759,2.4,199092.056254607,199092.614929298,0.558674691361375,66,Shorter,Index,78,=,Middle
219,Temporal,3421,1,4,60,1600,3.75,5,2,l,l,-1600,-400,-1600,0,L,S,=,0.352370121215684,0.281385621550948,1.30252030181184,1.0174668337518,1.87272210920143,199094.339556895,199094.709568778,199094.709568778,199097.909450934,3.2,199099.239613183,199099.239613183,199102.439490848,3.2,199103.606256412,199104.038961422,0.432705010229256,77,Equals to,Ring,66,L,Index
219,Temporal,3421,1,4,61,800,1.25,3.33333333333333,1,l,l,-1600,-1200,-1600,-800,S,=,L,0.452318011120987,0.477520558497706,1.14764578731908,1.14241088396174,1.97664855893881,199106.056354032,199106.519671223,199106.519671223,199109.719508467,3.2,199110.89949713,199110.89949713,199113.299509789,2.4,199114.58967896,199115.031004566,0.441325605846941,66,Shorter,Index,77,L,Ring
219,Temporal,3421,1,4,62,1200,10,7.5,1,r,r,0,800,0,1200,=,L,S,0.304544397170433,0.334903638809183,1.63554188990432,1.41125728209821,1.68189934829327,199117.156400677,199117.479740016,199117.479740016,199118.27957001,0.8,199119.939955094,199119.939955094,199121.539804721,1.6,199123.106376392,199123.462981997,0.356605605193181,78,Longer,Middle,78,L,Middle
219,Temporal,3421,1,4,63,800,15,5,1,r,r,0,1200,0,800,=,L,S,0.341572801956626,0.394980587753476,1.07667354509191,1.68100501036366,1.98643459237982,199125.306434393,199125.659885827,199125.659885827,199126.459756883,0.8,199127.569851417,199127.569851417,199129.169830649,1.6,199131.006483245,199131.327163987,0.320680741948308,78,Longer,Middle,78,L,Middle
219,Temporal,3421,1,4,64,1600,6.66666666666667,5,2,r,r,0,1600,0,1600,=,L,S,0.344091885259889,0.269083441899043,1.3448003113332,1.6483250520961,1.81896020996494,199133.456505964,199133.819921192,199133.819921192,199136.219975876,2.4,199137.600147652,199137.600147652,199140.800057398,3.2,199142.606498938,199142.918987189,0.312488250638125,78,Longer,Middle,78,L,Middle
219,Temporal,3421,1,4,65,400,5,5,2,m,m,-800,0,-800,-400,=,L,S,0.264472708727376,0.307842902088376,1.3075296183599,1.80078617377107,1.55092511449319,199144.889892679,199145.170290403,199145.170290403,199146.770132331,1.6,199148.110165662,199148.110165662,199148.910201291,0.8,199150.85660993,199151.279090179,0.422480249602813,77,Shorter,Ring,77,S,Ring
219,Temporal,3421,1,4,66,1200,20,7.5,1,l,l,-1600,0,-1600,-400,S,=,L,0.223917765585635,0.414536262481971,1.77611324284603,1.6256719610848,1.60149531440393,199152.989920075,199153.230421239,199153.230421239,199154.030237759,0.8,199155.83053429,199155.83053429,199157.430407656,1.6,199159.189933164,199160.04701516,0.85708199639339,77,Longer,Ring,78,=,Middle
219,Temporal,3421,1,4,67,1200,5,5,1,r,r,0,1600,0,1200,=,L,S,0.314607725458692,0.271393040705606,1.7975122948056,1.65004098656539,1.65151567729074,199161.80670098,199162.14052702,199162.14052702,199165.340398269,3.2,199167.170529721,199167.170529721,199169.57037813,2.4,199171.373399337,NaN,NaN,77,Shorter,Ring,999,Missed,Missed
219,Temporal,3421,1,4,68,400,2.5,5,2,l,l,-1600,-1200,-1600,-1200,S,=,L,0.43096371739336,0.251460674038244,1.4513802625933,1.37731688654131,1.1686585307759,199176.173434309,199176.620769457,199176.620769457,199178.22064956,1.6,199179.710683565,199179.710683565,199180.510582853,0.8,199182.040073643,199182.718860536,0.678786893055076,66,Shorter,Index,66,S,Index
219,Temporal,3421,1,4,69,1200,5,5,1,l,l,-1600,0,-1600,-400,=,L,S,0.489908184198851,0.395674996094053,1.14363032607337,1.78259669783633,1.78741412960481,199184.040163789,199184.540879774,199184.540879774,199187.740737871,3.2,199188.910756965,199188.910756965,199191.310743959,2.4,199193.240208292,199193.999027328,0.758819035749184,77,Shorter,Ring,66,=,Index
219,Temporal,3421,1,4,70,800,2.5,3.33333333333333,1,l,l,-1600,-1200,-1600,-800,L,S,=,0.496007792784328,0.406165067820367,1.0986324474066,1.24382563524332,1.00214753460271,199195.9402275,199196.450985876,199196.450985876,199198.050837428,1.6,199199.191039245,199199.191039245,199201.590929357,2.4,199202.990248577,199203.775006047,0.78475747036282,66,Longer,Index,78,S,Middle
219,Temporal,3421,1,4,71,1200,5,5,1,m,m,-800,0,-800,400,=,L,S,0.404265623641285,0.243215772838403,1.15945990844204,1.84082616612685,1.05345070002154,199204.923628555,199205.34128854,199205.34128854,199206.940813516,1.6,199208.131277652,199208.131277652,199210.531178672,2.4,199212.506927723,199213.062897434,0.555969711160287,78,Longer,Middle,78,L,Middle
219,Temporal,3421,1,4,72,400,10,5,2,m,m,-800,0,-800,-400,S,=,L,0.494436473065392,0.304224886463344,1.30163466858622,1.22957776883652,1.01494666033144,199214.273644884,199214.7811561,199214.7811561,199215.581102225,0.8,199216.911408514,199216.911408514,199217.711216373,0.8,199219.089883311,199219.967053297,0.877169986022636,78,Equals to,Middle,78,=,Middle
219,Temporal,3421,1,4,73,1200,10,5,1,l,l,-1600,0,-1600,-400,L,S,=,0.431467309768475,0.420509737190728,1.18840699297807,1.73907891084076,1.28156080038328,199222.17368261,199222.621139342,199222.621139342,199224.221154824,1.6,199225.441369832,199225.441369832,199227.841198029,2.4,199229.723700799,199230.223057912,0.499357112479629,66,Longer,Index,66,L,Index
219,Temporal,3421,1,4,74,1200,5,5,1,m,m,-800,0,-800,400,L,S,=,0.274922008556994,0.263666353183628,1.40829687826611,1.86560150090977,1.6280186163992,199231.657075324,199231.951420884,199231.951420884,199233.551280777,1.6,199235.001628668,199235.001628668,199237.401592885,2.4,199239.423758159,199239.927076536,0.503318377537653,66,Longer,Index,66,L,Index
219,Temporal,3421,1,4,75,1600,15,20,2,l,l,-1600,-400,-1600,0,=,L,S,0.479606630334241,0.39316723138658,1.34374512792761,1.63655794846836,1.51629682560783,199241.690486869,199242.181596113,199242.181596113,199242.981452413,0.8,199244.351770109,199244.351770109,199245.151568986,0.8,199246.940544476,199247.943081998,1.00253752150456,66,Equals to,Index,77,S,Ring
219,Temporal,3421,1,4,76,1200,3.33333333333333,7.5,1,m,m,-800,0,-800,400,=,L,S,0.304138244523388,0.399515068031735,1.97201164914941,1.79237010350837,1.50014696277061,199249.607185134,199249.921652689,199249.921652689,199252.321628456,2.4,199254.331644265,199254.331644265,199255.931602644,1.6,199257.85720743,199258.207026786,0.349819356313674,77,Shorter,Ring,78,L,Middle
219,Temporal,3421,1,4,77,1600,5,5,2,r,r,0,1600,0,1600,L,S,=,0.445810999638701,0.259745275998883,1.71206099162083,1.90298486291233,1.55384927381956,199259.873959719,199260.332092105,199260.332092105,199263.531936728,3.2,199265.271842251,199265.271842251,199268.471842142,3.2,199270.524012291,199270.966996195,0.442983903747518,77,Equals to,Ring,66,L,Index
219,Temporal,3421,1,4,78,1200,6.66666666666667,7.5,1,m,m,-800,800,-800,400,S,=,L,0.211367739907644,0.364880393016973,1.40262973058231,1.38914899013058,1.62091429563856,199272.674003091,199272.902318906,199272.902318906,199275.301836888,2.4,199276.742083039,199276.742083039,199278.342107183,1.6,199279.874030937,199280.623179368,0.749148430651985,66,Shorter,Index,78,=,Middle
219,Temporal,3421,1,4,79,800,1.25,3.33333333333333,1,r,r,0,400,0,800,L,S,=,0.286617350045245,0.328712470890531,1.72152676433408,1.2738004014927,1.1539548017289,199282.390765902,199282.69251686,199282.69251686,199285.892033623,3.2,199287.642293999,199287.642293999,199290.042257895,2.4,199291.457415438,199292.271104451,0.813689013128169,78,Shorter,Middle,78,S,Middle
219,Temporal,3421,1,4,80,800,1.66666666666667,5,1,l,l,-1600,-1200,-1600,-800,S,=,L,0.489549731826378,0.41125680739361,1.52625620304111,1.92416066238273,1.78361117688784,199293.574169138,199294.082584697,199294.082584697,199296.482342959,2.4,199298.032571961,199298.032571961,199299.632481257,1.6,199301.690812162,199302.927099313,1.23628715128871,66,Shorter,Index,78,=,Middle
219,Temporal,3421,1,4,81,400,1.66666666666667,1.25,2,m,m,-800,-400,-800,-400,L,S,=,0.422504462521923,0.235842724476986,1.47929650685932,1.78760943117135,1.56160973035622,199304.857589185,199305.29260585,199305.29260585,199307.692457146,2.4,199309.20238313,199309.20238313,199312.402440124,3.2,199314.340962353,199314.823054832,0.482092479069252,66,Longer,Index,66,L,Index
219,Temporal,3421,1,4,82,1200,3.33333333333333,7.5,1,l,l,-1600,-800,-1600,-400,=,L,S,0.411647087645697,0.33445677690979,1.57353706597378,1.05310656389561,1.17695280318316,199316.574266983,199317.002840658,199317.002840658,199319.402788836,2.4,199321.013009766,199321.013009766,199322.612524476,1.6,199323.807630985,199324.647073354,0.839442368858727,77,Shorter,Ring,77,S,Ring
219,Temporal,3421,1,4,83,1200,5,5,1,m,m,-800,0,-800,400,=,L,S,0.245540816271122,0.410276083060387,1.75630366156074,1.8785960604684,1.11030138763768,199325.974364379,199326.23306914,199326.23306914,199327.832626516,1.6,199329.612990967,199329.612990967,199332.012919576,2.4,199334.041069663,199334.51110585,0.47003618744202,78,Longer,Middle,78,L,Middle
219,Temporal,3421,1,4,84,1600,5,5,2,l,l,-1600,0,-1600,0,=,L,S,0.481982403964306,0.410374989112709,1.47930462224235,1.03745763230768,1.25254997171953,199335.774386257,199336.273206944,199336.273206944,199339.472858444,3.2,199340.983082453,199340.983082453,199344.182975838,3.2,199345.357760814,199346.591103001,1.23334218747914,66,Equals to,Index,78,L,Middle
219,Temporal,3421,1,4,85,1600,10,20,2,m,m,-800,800,-800,800,L,S,=,0.488857947742483,0.313009187791784,1.83409398151073,1.08383840773099,1.26333246558716,199347.991173723,199348.493200874,199348.493200874,199350.093090602,1.6,199351.953272875,199351.953272875,199352.75306341,0.8,199353.990988347,199354.615007253,0.624018906790297,78,Shorter,Middle,78,S,Middle
219,Temporal,3421,1,4,86,800,3.75,3.33333333333333,1,m,m,-800,400,-800,0,=,L,S,0.336966397744436,0.478953976012016,1.53125932653769,1.60454394990173,1.20564573167181,199356.041192601,199356.393382961,199356.393382961,199359.59326191,3.2,199361.153266395,199361.153266395,199363.553175114,2.4,199365.30792484,199366.198986843,0.891062002716353,77,Shorter,Ring,78,L,Middle
219,Temporal,3421,1,4,87,800,7.5,3.33333333333333,1,l,l,-1600,-400,-1600,-800,S,=,L,0.366584145064524,0.225581501407045,1.65404067913984,1.87263669838007,1.95942140263177,199367.557965053,199367.943457612,199367.943457612,199369.543373004,1.6,199371.223440905,199371.223440905,199373.623302466,2.4,199375.641299878,199376.103093624,0.461793746013427,77,Longer,Ring,77,L,Ring
219,Temporal,3421,1,4,88,1600,3.75,5,2,l,l,-1600,-400,-1600,0,L,S,=,0.240500365617447,0.286376241097327,1.1630749709398,1.52926112350413,1.66862694667095,199378.22464877,199378.483617551,199378.483617551,199381.683508049,3.2,199382.873868887,199382.873868887,199386.073691053,3.2,199387.758039783,199388.511075374,0.753035590430954,77,Equals to,Ring,66,L,Index
219,Temporal,3421,1,4,89,1200,10,5,1,m,m,-800,800,-800,400,S,=,L,0.366864487718999,0.309609541644692,1.90488004915861,1.89943900593688,1.30486545936259,199390.324769199,199390.703529036,199390.703529036,199392.303578202,1.6,199394.243952995,199394.243952995,199396.643801403,2.4,199398.691481379,199399.031284306,0.339802926901029,77,Longer,Ring,78,=,Middle
219,Temporal,3421,1,4,90,1600,7.5,20,2,m,m,-800,400,-800,800,=,L,S,0.402195525236801,0.473825752488755,1.54872242916604,1.95959757139399,1.6463282625069,199400.491492968,199400.913825437,199400.913825437,199402.513830012,1.6,199404.083815614,199404.083815614,199404.883737358,0.8,199406.974792008,199407.423157296,0.448365288437344,77,Shorter,Ring,77,S,Ring
219,Temporal,3421,1,4,91,1200,2.5,5,1,m,m,-800,0,-800,400,=,L,S,0.32935025093565,0.378350569319865,1.54128978623394,1.53991179432142,1.05075535175907,199409.224838364,199409.574098517,199409.574098517,199412.773957576,3.2,199414.344223239,199414.344223239,199416.744143506,2.4,199418.424938829,199419.42321055,0.998271720105549,77,Shorter,Ring,78,L,Middle
219,Temporal,3421,1,4,92,400,5,5,2,r,r,0,400,0,400,L,S,=,0.375648632674351,0.3758077356439,1.8933532500535,1.78088429343332,1.2388278053385,199420.62491587,199421.014236513,199421.014236513,199421.814025124,0.8,199423.734254183,199423.734254183,199424.534021621,0.8,199426.458246316,199426.975017532,0.516771216091001,77,Equals to,Ring,78,S,Middle
219,Temporal,3421,1,4,93,400,3.33333333333333,1.25,2,r,r,0,800,0,400,=,L,S,0.467136285600062,0.242498769351771,1.27202766180632,1.66590619267251,1.48541874344162,199428.35834206,199428.844432402,199428.844432402,199431.244315456,2.4,199432.544459926,199432.544459926,199435.744310003,3.2,199437.558378626,199437.895150305,0.336771679285448,78,Longer,Middle,78,L,Middle
219,Temporal,3421,1,4,94,800,15,5,1,m,m,-800,400,-800,0,L,S,=,0.231069392628931,0.299670819681545,1.36103483459815,1.83439694167488,1.81468332060417,199439.525075774,199439.774550784,199439.774550784,199440.574430502,0.8,199441.964658464,199441.964658464,199443.564576422,1.6,199445.54169594,199445.991400257,0.449704316648422,66,Longer,Index,77,=,Ring
219,Temporal,3421,1,4,95,800,3.75,3.33333333333333,1,r,r,0,1200,0,800,=,L,S,0.425579773448785,0.237027227590355,1.38063450278131,1.8455252364134,1.12891393501624,199447.958445534,199448.394765619,199448.394765619,199451.594691084,3.2,199453.004888338,199453.004888338,199455.404754391,2.4,199457.408506974,199458.447101328,1.0385943534784,77,Shorter,Ring,77,S,Ring
219,Temporal,3421,1,4,96,1200,2.5,5,1,m,m,-800,0,-800,400,S,=,L,0.48604729776941,0.479871745021884,1.85469784195793,1.72200295016569,1.124763906158,199459.741816177,199460.244975391,199460.244975391,199463.444865889,3.2,199465.324636021,199465.324636021,199467.724642264,2.4,199469.591850149,199470.2311078,0.63925765096792,66,Shorter,Index,66,S,Index
