Subject,Task,SequenceOrder,ListNo,RunNo,TrialNo,Aud_Probe_Dist,Aud_Standard_Vel,Aud_Probe_Vel,Main_Control,Aud_Std_StartCode,Aud_Probe_StartCode,Aud_Std_StartPt,Aud_Std_EndPt,Aud_Probe_StartPt,Aud_Probe_EndPt,RespIndex,RespMiddle,RespRing,ISI_Cross_Std,ISI_Cross_Probe,ISI_Std_Probe,ISI_Probe_Response,ITI,TrialOnset,StdOnset,StdOnsetByStop,StdOffset,StdDur,ProbeOnset,ProbeOnsetByStop,ProbeOffset,ProbeDur,RespWinStart,RespTime,RT,CorrectKC,CorrectResponse,CorrectFinger,SubjRespKC,SubjResponse,SubjRespFinger
214,Spatial,1243,3,4,1,400,1.25,1.25,2,r,r,0,400,0,400,S,=,L,0.226138286177318,0.491404216906748,1.5074476215436,1.24983701755648,1.65467735104061,13935.2868545541,13935.524078082,13935.524078082,13938.7266588263,3.2,13940.2570346652,13940.2570346652,13943.456913293,3.2,13944.8536218131,13945.4058888369,0.552267023840614,78,Equals to,Middle,78,=,Middle
214,Spatial,1243,3,4,2,800,3.75,3.33333333333333,1,l,l,-1600,-400,-1600,-800,=,L,S,0.35888835742293,0.23234167226952,1.73803811939091,1.98608819131916,1.26259388195603,13947.2036734414,13947.5770190999,13947.5770190999,13950.7770574871,3.2,13952.5370317524,13952.5370317524,13954.9369205816,2.4,13957.0703204749,13957.58170831,0.511387835054848,77,Shorter,Ring,66,=,Index
214,Spatial,1243,3,4,3,800,2.5,3.33333333333333,1,l,l,-1600,-1200,-1600,-800,S,=,L,0.319522037125568,0.277875671002704,1.95071727914253,1.92423205687193,1.73092785462103,13959.0036985281,13959.3371274156,13959.3371274156,13960.9369610026,1.6,13962.9174832237,13962.9174832237,13965.3170563835,2.4,13967.3870551837,13967.8700889199,0.483033736196376,77,Longer,Ring,77,L,Ring
214,Spatial,1243,3,4,4,800,1.66666666666667,5,1,m,m,-800,-400,-800,0,L,S,=,0.334486989162248,0.329463684730602,1.8753074853197,1.16607157417819,1.00293523468834,13969.7537843427,13970.107302503,13970.107302503,13972.5071428911,2.4,13974.4074950484,13974.4074950484,13976.007365207,1.6,13977.3204964349,13978.2697596486,0.949263213680752,66,Longer,Index,77,=,Ring
214,Spatial,1243,3,4,5,800,3.75,3.33333333333333,1,l,l,-1600,-400,-1600,-800,S,=,L,0.379090803183078,0.391572929638163,1.69660236488604,1.28263661816095,1.47894879518979,13979.4205427588,13979.817428559,13979.817428559,13983.0174682294,3.2,13984.7476332372,13984.7476332372,13987.1474739461,2.4,13988.5872716124,13989.0859374449,0.498665832454208,66,Shorter,Index,78,=,Middle
214,Spatial,1243,3,4,6,1200,5,5,1,m,m,-800,800,-800,400,=,L,S,0.458651260033054,0.244411508993898,1.84931132556801,1.18872505497713,1.32292955357616,13990.7206069834,13991.1977844312,13991.1977844312,13994.3976319411,3.2,13996.2878473918,13996.2878473918,13998.6877391083,2.4,14000.0206035187,14000.5338882569,0.513284738222865,77,Shorter,Ring,78,L,Middle
214,Spatial,1243,3,4,7,800,5,5,1,r,r,0,400,0,800,L,S,=,0.211661979964089,0.222943351638986,1.17632402956441,1.87434478439429,1.31189745567039,14002.0040215759,14002.2277184807,14002.2277184807,14003.0277197832,0.8,14004.2278336487,14004.2278336487,14005.8277118273,1.6,14007.8373302074,14008.2940110086,0.456680801209586,66,Longer,Index,66,L,Index
214,Spatial,1243,3,4,8,800,5,5,1,m,m,-800,-400,-800,0,L,S,=,0.436191250842033,0.458184836549414,1.12081319971745,1.06270202760396,1.93757066080286,14009.7540798015,14010.2081049575,14010.2081049575,14011.0079185907,0.8,14012.1580742567,14012.1580742567,14013.7579177887,1.6,14014.9707354646,14015.4218994311,0.451163966474269,66,Longer,Index,66,L,Index
214,Spatial,1243,3,4,9,800,1.25,3.33333333333333,1,l,l,-1600,-1200,-1600,-800,S,=,L,0.237578511505143,0.309789718568063,1.45909936570638,1.07601359185345,1.41371717701199,14017.5041293654,14017.7581462447,14017.7581462447,14020.9580707471,3.2,14022.4479780353,14022.4479780353,14024.8480208496,2.4,14026.0708173975,14026.5577960378,0.486978640350571,77,Longer,Ring,78,=,Middle
214,Spatial,1243,3,4,10,1200,2.5,5,1,m,m,-800,0,-800,400,L,S,=,0.3002701231984,0.402417506119109,1.22155685911873,1.02419048296237,1.65577385490998,14028.120817622,14028.4382878853,14028.4382878853,14031.6381758163,3.2,14032.8880906882,14032.8880906882,14035.2880670964,2.4,14036.4542122286,14036.9738103533,0.519598124719778,66,Longer,Index,77,=,Ring
214,Spatial,1243,3,4,11,1200,2.5,5,1,l,l,-1600,-800,-1600,-400,S,=,L,0.295860857462855,0.407626643375641,1.1156084641469,1.07743484737624,1.61137832438981,14038.7709296141,14039.0784428199,14039.0784428199,14042.2783358837,3.2,14043.4186608884,14043.4186608884,14045.8182494468,2.4,14047.0542627229,14047.5339206579,0.479657935073192,77,Longer,Ring,77,L,Ring
214,Spatial,1243,3,4,12,1600,6.66666666666667,5,2,m,m,-800,800,-800,800,=,L,S,0.211713952111069,0.439794852424466,1.74499839615795,1.52303300179942,1.63133814514012,14049.3043331389,14049.5285558385,14049.5285558385,14051.928395585,2.4,14053.6984985368,14053.6984985368,14056.8984342673,3.2,14058.5710002547,14059.5819489116,1.01094865689811,66,Equals to,Index,66,=,Index
214,Spatial,1243,3,4,13,400,10,5,2,r,r,0,800,0,400,S,=,L,0.373451889423431,0.396022336598469,1.17307421265144,1.13334526444686,1.71274601006744,14061.3544020152,14061.7387624158,14061.7387624158,14062.538574445,0.8,14063.7386799697,14063.7386799697,14064.5387069363,0.8,14065.8210353826,14066.6700629991,0.849027616575768,66,Shorter,Index,78,=,Middle
214,Spatial,1243,3,4,14,1600,7.5,20,2,l,l,-1600,-400,-1600,0,=,L,S,0.272796225942233,0.339816086111278,1.85216899282835,1.79718464576367,1.79274611874862,14068.5211225766,14068.8090934773,14068.8090934773,14070.4086104326,1.6,14072.2891129564,14072.2891129564,14073.0887084441,0.8,14075.037768359,14075.9578244609,0.920056101880618,78,Longer,Middle,77,S,Ring
214,Spatial,1243,3,4,15,400,2.5,5,2,r,r,0,400,0,400,S,=,L,0.478666062658736,0.377619659152466,1.03709635346463,1.88084401421224,1.86615102901527,14077.8878251089,14078.3789003479,14078.3789003479,14079.9787926418,1.6,14081.0388478134,14081.0388478134,14081.8388042035,0.8,14083.8712275048,14084.3097800388,0.438552533996699,78,Equals to,Middle,66,S,Index
214,Spatial,1243,3,4,16,1600,5,5,2,r,r,0,1200,0,1600,=,L,S,0.384719930935403,0.410381951890388,1.10552188780977,1.64611661366329,1.70647468019523,14086.3379044433,14086.7390174536,14086.7390174536,14089.1388777314,2.4,14090.2793111672,14090.2793111672,14093.4791493738,3.2,14095.2712407922,14095.7099743166,0.438733524404597,78,Longer,Middle,78,L,Middle
214,Spatial,1243,3,4,17,800,5,5,1,r,r,0,1200,0,800,S,=,L,0.34163522060491,0.305780012022853,1.23713218394185,1.40785015702856,1.85272398155032,14097.554646723,14097.9092735756,14097.9092735756,14100.3092002595,2.4,14101.5691495021,14101.5691495021,14103.1691640217,1.6,14104.7213645815,14106.0059261783,1.28456159679081,66,Shorter,Index,78,=,Middle
214,Spatial,1243,3,4,18,1200,3.33333333333333,7.5,1,m,m,-800,0,-800,400,S,=,L,0.272036909065354,0.270657340822574,1.9192903964814,1.81610441789999,1.22551060805698,14108.0047106589,14108.2894651971,14108.2894651971,14110.6893585176,2.4,14112.6395370247,14112.6395370247,14114.2393125466,1.6,14116.2046977627,14118.0860397808,1.88134201808862,77,Longer,Ring,66,S,Index
214,Spatial,1243,3,4,19,1200,10,7.5,1,l,l,-1600,-800,-1600,-400,=,L,S,0.284505661219494,0.328283764207732,1.94634727144276,1.99074102074669,1.71398382730878,14119.4547915973,14119.7496722557,14119.7496722557,14120.5496013777,0.8,14122.5296263553,14122.5296263553,14124.1295208948,1.6,14126.254834561,14127.4459990517,1.19116449068133,78,Longer,Middle,78,L,Middle
214,Spatial,1243,3,4,20,400,5,5,2,m,m,-800,-400,-800,-400,=,L,S,0.314554246068775,0.306099094168751,1.89316300128756,1.10719446023176,1.95024469570657,14129.3048598961,14129.629703797,14129.629703797,14130.4296739816,0.8,14132.3500182087,14132.3500182087,14133.1497888544,0.8,14134.4048154329,14134.8779751994,0.473159766532262,66,Equals to,Index,66,=,Index
214,Spatial,1243,3,4,21,1200,20,7.5,1,m,m,-800,800,-800,400,L,S,=,0.424586202175715,0.470705490266006,1.71891204550417,1.99266918787646,1.49999304417896,14136.9882031422,14137.4299316306,14137.4299316306,14138.2298129531,0.8,14139.9701117803,14139.9701117803,14141.5696261692,1.6,14143.704938947,14144.7980370757,1.093098128782,78,Shorter,Middle,77,=,Ring
214,Spatial,1243,3,4,22,1600,20,20,2,r,r,0,1600,0,1600,=,L,S,0.225728068217988,0.430068205848918,1.39061535989171,1.0665019120695,1.75225777733488,14146.4549327502,14146.7000024573,14146.7000024573,14147.4998680605,0.8,14148.9299775054,14148.9299775054,14149.7299197802,0.8,14150.9382523212,14151.6219968908,0.683744569621922,66,Equals to,Index,66,=,Index
214,Spatial,1243,3,4,23,1200,2.5,5,1,r,r,0,800,0,1200,L,S,=,0.319012475877594,0.412045435441826,1.14238288520797,1.96087997633453,1.91768563711641,14153.5216820555,14153.8603589455,14153.8603589455,14157.059907147,3.2,14158.2301783917,14158.2301783917,14160.6300960931,2.4,14162.7383329067,14163.2139930052,0.475660098562003,66,Longer,Index,77,=,Ring
214,Spatial,1243,3,4,24,800,7.5,3.33333333333333,1,m,m,-800,400,-800,0,S,=,L,0.313329746943549,0.399159849311255,1.76429195481937,1.5389317571819,1.1197984721997,14165.288414615,14165.6203434315,14165.6203434315,14167.220343515,1.6,14169.020337208,14169.020337208,14171.4201811249,2.4,14173.1050983162,14173.6779614691,0.572863152856371,66,Shorter,Index,66,S,Index
214,Spatial,1243,3,4,25,800,7.5,3.33333333333333,1,l,l,-1600,-400,-1600,-800,L,S,=,0.348179151485741,0.397178236307435,1.95901568457483,1.60052417976941,1.99352680409834,14176.2718265769,14176.6305163888,14176.6305163888,14178.2305100562,1.6,14180.2105494699,14180.2105494699,14182.6103844044,2.4,14184.3551424265,14184.8700006993,0.514858272814308,78,Shorter,Middle,66,L,Index
214,Spatial,1243,3,4,26,1200,10,5,1,l,l,-1600,0,-1600,-400,S,=,L,0.444650936179881,0.379384972358928,1.63023032613469,1.66578585863896,1.50808623534796,14187.0052354912,14187.4607960064,14187.4607960064,14189.0603594781,1.6,14190.7208209135,14190.7208209135,14193.1206289006,2.4,14194.9385455343,14196.0219823264,1.08343679202881,66,Shorter,Index,78,=,Middle
214,Spatial,1243,3,4,27,800,5,5,1,l,l,-1600,-400,-1600,-800,L,S,=,0.322907743780647,0.467718203498904,1.10495268829008,1.95152319575086,1.79372385348914,14197.6719753008,14198.0109219854,14198.0109219854,14200.4107870753,2.4,14201.5407655687,14201.5407655687,14203.1406241783,1.6,14205.2386833582,14205.917967359,0.67928400078199,78,Shorter,Middle,77,=,Ring
214,Spatial,1243,3,4,28,1200,10,7.5,1,m,m,-800,0,-800,400,=,L,S,0.266042283628571,0.207553976497188,1.09359255260442,1.45613272038278,1.37645140180609,14207.8553660256,14208.1410739879,14208.1410739879,14208.9409479319,0.8,14210.0609260596,14210.0609260596,14211.6608453009,1.6,14213.2553302883,14214.9179490733,1.66261878501973,78,Longer,Middle,66,=,Index
214,Spatial,1243,3,4,29,800,3.75,3.33333333333333,1,r,r,0,1200,0,800,=,L,S,0.220665665348136,0.383591046264449,1.6315169313826,1.44973128792728,1.17137948267243,14216.4553831565,14216.6912407088,14216.6912407088,14219.8911260733,3.2,14221.5510912278,14221.5510912278,14223.9510429342,2.4,14225.5553775104,14227.0620707266,1.50669321625355,77,Shorter,Ring,66,=,Index
214,Spatial,1243,3,4,30,1200,3.33333333333333,7.5,1,l,l,-1600,-800,-1600,-400,L,S,=,0.329862802620764,0.379047379684889,1.95599854717702,1.29312141487299,1.22746748164613,14228.3888305029,14228.7313830038,14228.7313830038,14231.1312570761,2.4,14233.111348139,14233.111348139,14234.711222468,1.6,14236.1388104528,14237.8700083986,1.73119794583909,66,Longer,Index,66,L,Index
214,Spatial,1243,3,4,31,800,15,5,1,m,m,-800,400,-800,0,=,L,S,0.248426434952885,0.317590981739664,1.88944099514828,1.03315699218659,1.0367606829993,14239.2389097089,14239.5014300911,14239.5014300911,14240.3012581604,0.8,14242.2315363472,14242.2315363472,14243.831391428,1.6,14245.0055380077,14245.4540665844,0.448528576735043,77,Shorter,Ring,78,L,Middle
214,Spatial,1243,3,4,32,400,3.33333333333333,1.25,2,r,r,0,800,0,400,L,S,=,0.209061371433012,0.227664683285538,1.89008966364341,1.60400587868972,1.1124443262027,14246.6389570593,14246.8613123696,14246.8613123696,14249.2613221412,2.4,14251.1815794309,14251.1815794309,14254.381416996,3.2,14256.1222769511,14256.6938543289,0.571577377801077,78,Shorter,Middle,66,L,Index
214,Spatial,1243,3,4,33,400,10,5,2,r,r,0,800,0,400,=,L,S,0.29372665360507,0.210367002853256,1.97439815337526,1.69367563911347,1.78634103845461,14257.9556962594,14258.261636893,14258.261636893,14259.0614826064,0.8,14261.081932185,14261.081932185,14261.8816871114,0.8,14263.722389175,14264.270000571,0.547611396066714,77,Shorter,Ring,66,=,Index
214,Spatial,1243,3,4,34,800,1.66666666666667,5,1,m,m,-800,-400,-800,0,S,=,L,0.419919762465683,0.209729153938212,1.46754011817653,1.74888845928896,1.97251438604506,14266.2057669476,14266.6418153617,14266.6418153617,14269.0416345768,2.4,14270.5416830629,14270.5416830629,14272.1416764094,1.6,14274.0390634373,14274.4620491045,0.422985667200919,77,Longer,Ring,78,=,Middle
214,Spatial,1243,3,4,35,1200,6.66666666666667,7.5,1,l,l,-1600,0,-1600,-400,=,L,S,0.478660934622097,0.29208153946502,1.08532690620365,1.63485213259726,1.97619982050802,14276.5891512409,14277.082055373,14277.082055373,14279.4817250944,2.4,14280.5921924005,14280.5921924005,14282.1917443232,1.6,14283.9725262693,14284.5100475236,0.537521254382227,77,Shorter,Ring,66,=,Index
214,Spatial,1243,3,4,36,1200,2.5,5,1,r,r,0,800,0,1200,L,S,=,0.45255996881375,0.457152074347445,1.13933943557178,1.2551306751451,1.66757613644507,14286.6391315757,14287.1020323651,14287.1020323651,14290.302056637,3.2,14291.4722229793,14291.4722229793,14293.8722080492,2.4,14295.2725323417,14295.758025668,0.485493326354117,66,Longer,Index,77,=,Ring
214,Spatial,1243,3,4,37,1200,10,5,1,l,l,-1600,0,-1600,-400,L,S,=,0.446590020191525,0.299263191770149,1.26645489739379,1.07936442315115,1.80230431690131,14297.5723360749,14298.0322598202,14298.0322598202,14299.6321736079,1.6,14300.9425279274,14300.9425279274,14303.3420532878,2.4,14304.5726492452,14304.9981967711,0.425547525905131,78,Shorter,Middle,77,=,Ring
214,Spatial,1243,3,4,38,1200,6.66666666666667,7.5,1,l,l,-1600,0,-1600,-400,S,=,L,0.461337228757067,0.474850384897311,1.22738417319284,1.62360165267861,1.69542380666993,14306.9560170615,14307.432358499,14307.432358499,14309.8323948972,2.4,14311.0823649471,14311.0823649471,14312.6823621433,1.6,14314.4393257252,14314.9660190313,0.526693306079324,66,Shorter,Index,78,=,Middle
214,Spatial,1243,3,4,39,400,2.5,1.25,2,m,m,-800,0,-800,-400,L,S,=,0.323981626286993,0.205022585785322,1.983526163899,1.87144988640863,1.58191967930525,14316.8227449373,14317.1627345497,14317.1627345497,14320.3625887964,3.2,14322.3724573574,14322.3724573574,14325.5724514739,3.2,14327.5894800725,14328.1579533592,0.568473286753942,78,Shorter,Middle,66,L,Index
214,Spatial,1243,3,4,40,1200,5,5,1,r,r,0,800,0,1200,S,=,L,0.466862390957303,0.269751863105353,1.26921226823827,1.92943090901875,1.79651315796249,14329.8894538215,14330.3728410368,14330.3728410368,14331.9726489597,1.6,14333.2727639159,14333.2727639159,14335.6726822589,2.4,14337.7561916421,14338.2060242796,0.449832637514191,77,Longer,Ring,78,=,Middle
214,Spatial,1243,3,4,41,1600,5,5,2,r,r,0,1200,0,1600,S,=,L,0.469489871240713,0.229761767734598,1.09738908649442,1.7343744288472,1.37880079204224,14340.156226802,14340.6430247858,14340.6430247858,14343.0429232391,2.4,14344.1729751962,14344.1729751962,14347.3728711472,3.2,14349.2562189103,14349.9902681457,0.734049235432394,77,Longer,Ring,66,S,Index
214,Spatial,1243,3,4,42,400,1.66666666666667,1.25,2,l,l,-1600,-1200,-1600,-1200,=,L,S,0.336455886094079,0.444122901417162,1.25352475808975,1.43196316847001,1.28386831960987,14351.5229277303,14351.8732494179,14351.8732494179,14354.2728155202,2.4,14355.5632576497,14355.5632576497,14358.7631747737,3.2,14360.3396249053,14360.9740538422,0.634428936868062,66,Equals to,Index,78,L,Middle
214,Spatial,1243,3,4,43,400,5,5,2,r,r,0,400,0,400,=,L,S,0.462507696051188,0.21524913266012,1.13109890026634,1.55916486750803,1.07498144014955,14362.4063302607,14362.8831205004,14362.8831205004,14363.6829482488,0.8,14364.8531598243,14364.8531598243,14365.6530190114,0.8,14367.3564046951,14367.8460505725,0.489645877420116,66,Equals to,Index,66,=,Index
214,Spatial,1243,3,4,44,1600,3.75,5,2,l,l,-1600,-400,-1600,0,S,=,L,0.244126026382975,0.211322439372564,1.87832833524358,1.36460378303772,1.07179673035159,14369.0897091158,14369.3532740298,14369.3532740298,14372.5531010084,3.2,14374.4633284186,14374.4633284186,14377.6632439386,3.2,14379.1731799129,14380.9900798348,1.81689992191787,77,Longer,Ring,66,S,Index
214,Spatial,1243,3,4,45,1200,5,5,1,m,m,-800,800,-800,400,=,L,S,0.36783136253661,0.324662919460225,1.75176359234858,1.64316209396582,1.0789128333349,14382.2065054828,14382.5934181855,14382.5934181855,14385.7933715601,3.2,14387.5735727223,14387.5735727223,14389.9734804789,2.4,14391.7565597378,14392.1579578504,0.401398112675452,77,Shorter,Ring,66,=,Index
214,Spatial,1243,3,4,46,800,15,5,1,l,l,-1600,-400,-1600,-800,S,=,L,0.419635019337694,0.486798980694621,1.64085831740367,1.22015297560679,1.7770417791628,14393.3732533124,14393.8038291138,14393.8038291138,14394.6036385766,0.8,14396.283679851,14396.283679851,14397.8835272326,1.6,14399.2565474117,14399.7021162677,0.44556885601196,66,Shorter,Index,77,L,Ring
214,Spatial,1243,3,4,47,1600,15,20,2,r,r,0,1200,0,1600,S,=,L,0.323116359867214,0.464434381993793,1.57126558520299,1.27108697452886,1.46770673432736,14401.6232579641,14401.9639995368,14401.9639995368,14402.7635603779,0.8,14404.3640337343,14404.3640337343,14405.1638547459,0.8,14406.5733234937,14407.2301489228,0.65682542911054,77,Longer,Ring,78,=,Middle
214,Spatial,1243,3,4,48,800,3.75,3.33333333333333,1,r,r,0,1200,0,800,L,S,=,0.394994242603127,0.408986047918738,1.81916732683215,1.0898775463522,1.1337897576602,14408.8567140363,14409.2639505182,14409.2639505182,14412.463837166,3.2,14414.3039933645,14414.3039933645,14416.7039091411,2.4,14417.9400019761,14418.4461828713,0.506180895205034,78,Shorter,Middle,77,=,Ring
214,Spatial,1243,3,4,49,1200,5,5,1,r,r,0,800,0,1200,S,=,L,0.29085899503703,0.346668179373075,1.04344472855629,1.69639326828776,1.3211430215843,14420.2733789386,14420.5841854994,14420.5841854994,14422.1838458533,1.6,14423.2640987288,14423.2640987288,14425.6640565305,2.4,14427.5067317125,14427.950109169,0.443377456462258,77,Longer,Ring,78,=,Middle
214,Spatial,1243,3,4,50,800,1.25,3.33333333333333,1,m,m,-800,-400,-800,0,S,=,L,0.221714863272857,0.466006959210748,1.42880719928102,1.84027070373718,1.72054228365762,14429.4234816273,14429.664199974,14429.664199974,14432.8641071531,3.2,14434.3142895098,14434.3142895098,14436.7141536373,2.4,14438.6901458559,14439.2140186694,0.523872813493654,77,Longer,Ring,78,=,Middle
214,Spatial,1243,3,4,51,1600,15,20,2,m,m,-800,400,-800,800,S,=,L,0.245136893668046,0.445505053928048,1.44783705367721,1.38943923414048,1.57313767973637,14441.090183903,14441.3543214489,14441.3543214489,14442.1541219292,0.8,14443.6345857642,14443.6345857642,14444.4344115879,0.8,14445.9735926643,14446.3741217239,0.400529059625114,77,Longer,Ring,78,=,Middle
214,Spatial,1243,3,4,52,1600,3.75,5,2,r,r,0,1200,0,1600,S,=,L,0.350497705101383,0.328717218885007,1.71621512293955,1.1067503891224,1.70901642117923,14448.0902718028,14448.4544993016,14448.4544993016,14451.6544087263,3.2,14453.404551047,14453.404551047,14456.6044890231,3.2,14457.856515139,14458.3821173969,0.525602257934224,77,Longer,Ring,77,L,Ring
214,Spatial,1243,3,4,53,1200,5,5,1,l,l,-1600,-800,-1600,-400,L,S,=,0.256977584694911,0.441109279335717,1.05330208717826,1.73977851574663,1.58083960164139,14460.2403456194,14460.5149178971,14460.5149178971,14462.1147020807,1.6,14463.1946902944,14463.1946902944,14465.5947606976,2.4,14467.4735181025,14467.9419611149,0.468443012383432,66,Longer,Index,66,L,Index
214,Spatial,1243,3,4,54,1200,3.33333333333333,7.5,1,l,l,-1600,-800,-1600,-400,L,S,=,0.342182988618146,0.446998989608288,1.83808228554955,1.40147971923841,1.1889430793016,14469.6737637728,14470.0347623979,14470.0347623979,14472.4347330317,2.4,14474.3148579713,14474.3148579713,14475.9148105759,1.6,14477.4570580645,14477.9660171065,0.508959041906564,66,Longer,Index,78,S,Middle
214,Spatial,1243,3,4,55,800,1.66666666666667,5,1,r,r,0,400,0,800,S,=,L,0.309219313077275,0.443827568022219,1.89332828865704,1.96622839050258,1.14091867630042,14479.3071369498,14479.6349729724,14479.6349729724,14482.0349618919,2.4,14483.9649391663,14483.9649391663,14485.5649536858,1.6,14487.6738615492,14488.0704250564,0.396563507223618,77,Longer,Ring,66,S,Index
214,Spatial,1243,3,4,56,800,2.5,3.33333333333333,1,l,l,-1600,-1200,-1600,-800,L,S,=,0.303888535929118,0.490068579872597,1.90119275265834,1.35593758800673,1.46569379500977,14489.3571602721,14489.6753343753,14489.6753343753,14491.2751439022,1.6,14493.2052494975,14493.2052494975,14495.6049371837,2.4,14497.1068113998,14497.5661298363,0.459318436565809,66,Longer,Index,66,L,Index
214,Spatial,1243,3,4,57,1200,5,5,1,r,r,0,1600,0,1200,S,=,L,0.252201830059286,0.380370475545371,1.36716828686005,1.39007765103091,1.23801960140508,14499.1906103774,14499.4550430613,14499.4550430613,14502.6550644459,3.2,14504.0553874103,14504.0553874103,14506.4550519988,2.4,14507.9906559076,14509.1901933346,1.19953742704274,66,Shorter,Index,78,=,Middle
214,Spatial,1243,3,4,58,1600,7.5,20,2,l,l,-1600,-400,-1600,0,=,L,S,0.273795286826024,0.439588029148922,1.94614484310141,1.33863887110488,1.71203426684515,14510.5740212487,14510.8654596999,14510.8654596999,14512.4652214273,1.6,14514.435243152,14514.435243152,14515.2352226399,0.8,14516.7239815013,14517.5261854763,0.802203974995791,78,Longer,Middle,77,S,Ring
214,Spatial,1243,3,4,59,1200,20,7.5,1,r,r,0,1600,0,1200,L,S,=,0.214908833946443,0.489348060729774,1.9949623654194,1.23640102328916,1.53936146183494,14519.3740678291,14519.6056869433,14519.6056869433,14520.4055628121,0.8,14522.4356595532,14522.4356595532,14524.0355463934,1.6,14525.4240353319,14528.2620199757,2.83798464384199,78,Shorter,Middle,77,=,Ring
214,Spatial,1243,3,4,60,1200,10,5,1,l,l,-1600,0,-1600,-400,=,L,S,0.210975661516531,0.393771995410679,1.86193388514406,1.21854283807667,1.38492723842248,14529.9408071896,14530.1658014183,14530.1658014183,14531.7657020531,1.6,14533.6558992181,14533.6558992181,14536.0558082578,2.4,14537.4241334973,14537.8302026251,0.406069127733645,77,Shorter,Ring,78,L,Middle
214,Spatial,1243,3,4,61,400,1.25,1.25,2,r,r,0,400,0,400,S,=,L,0.218525738994829,0.315376083479858,1.15571874521048,1.17134474770399,1.60183169216578,14539.3742089821,14539.6060680563,14539.6060680563,14542.8056393555,3.2,14543.9960300284,14543.9960300284,14547.1959615884,3.2,14548.5075898676,14549.7262457229,1.21865585526211,78,Equals to,Middle,78,=,Middle
214,Spatial,1243,3,4,62,1200,20,7.5,1,l,l,-1600,0,-1600,-400,L,S,=,0.407740264087291,0.351151585882592,1.98580171898023,1.35234708714049,1.71108830873343,14551.474237341,14551.8959224313,14551.8959224313,14552.6958916536,0.8,14554.7058083348,14554.7058083348,14556.3058629546,1.6,14557.8075799776,14558.2460882989,0.438508321287372,78,Shorter,Middle,66,L,Index
214,Spatial,1243,3,4,63,1600,6.66666666666667,5,2,m,m,-800,800,-800,800,L,S,=,0.307697872002244,0.358676621836906,1.49872162055505,1.20071922646892,1.06253525889462,14560.1076464478,14560.4263152279,14560.4263152279,14562.8259839868,2.4,14564.3562161064,14564.3562161064,14567.5560896013,3.2,14568.9077207529,14569.4381554389,0.530434686044828,77,Equals to,Ring,66,L,Index
214,Spatial,1243,3,4,64,1200,10,7.5,1,m,m,-800,0,-800,400,S,=,L,0.387301330776277,0.399664659176958,1.72455959941253,1.12318077156224,1.94879020375445,14570.6410775616,14571.0464806592,14571.0464806592,14571.8463392047,0.8,14573.5965427985,14573.5965427985,14575.1963478342,1.6,14576.4577064057,14576.9821832897,0.524476883958414,77,Longer,Ring,77,L,Ring
214,Spatial,1243,3,4,65,1200,6.66666666666667,7.5,1,r,r,0,1600,0,1200,L,S,=,0.275462000192678,0.432175210637197,1.60185679011909,1.11727409332038,1.75517927304877,14579.091121287,14579.3864722413,14579.3864722413,14581.7865227548,2.4,14583.426535619,14583.426535619,14585.0264336873,1.6,14586.2911699941,14587.1661973331,0.875027339030567,78,Shorter,Middle,77,=,Ring
214,Spatial,1243,3,4,66,800,2.5,3.33333333333333,1,l,l,-1600,-1200,-1600,-800,L,S,=,0.383685479520539,0.368104458429222,1.17586420581881,1.43645562572726,1.22180123649283,14589.074544477,14589.4767992221,14589.4767992221,14591.0766482077,1.6,14592.2866408549,14592.2866408549,14594.686598015,2.4,14596.2745104078,14596.6383584425,0.363848034734474,66,Longer,Index,66,L,Index
214,Spatial,1243,3,4,67,400,2.5,1.25,2,m,m,-800,0,-800,-400,=,L,S,0.322643449105995,0.270303226428305,1.38476635812541,1.48943763801089,1.08947161459724,14598.0079199637,14598.3467623876,14598.3467623876,14601.5467061382,3.2,14602.9567792426,14602.9567792426,14606.1566646071,3.2,14607.7912395988,14608.374140972,0.582901373225468,77,Shorter,Ring,66,=,Index
214,Spatial,1243,3,4,68,800,5,5,1,r,r,0,1200,0,800,=,L,S,0.255628638576071,0.487745691729066,1.91796553499698,1.07186970621994,1.49753281896157,14609.6080015758,14609.8769928583,14609.8769928583,14612.2769628505,2.4,14614.227131092,14614.227131092,14615.8269653206,1.6,14617.0413039196,14618.334112241,1.29280832135191,77,Shorter,Ring,77,S,Ring
214,Spatial,1243,3,4,69,1600,5,5,2,m,m,-800,800,-800,800,=,L,S,0.248324955002924,0.404977221041638,1.40527538032982,1.34237863136218,1.46858446809618,14619.9913999357,14620.257174535,14620.257174535,14623.4571064159,3.2,14624.8970465221,14624.8970465221,14628.0969527388,3.2,14629.5747808689,14630.14208873,0.56730786114349,66,Equals to,Index,78,L,Middle
214,Spatial,1243,3,4,70,1600,5,5,2,m,m,-800,800,-800,800,=,L,S,0.432210535492922,0.200325695101616,1.89440879673553,1.31742944573567,1.7012075875322,14631.7581389112,14632.2070421399,14632.2070421399,14635.4071010585,3.2,14637.3373702628,14637.3373702628,14640.5372431161,3.2,14642.0081682646,14642.4782079093,0.470039644731514,66,Equals to,Index,66,=,Index
214,Spatial,1243,3,4,71,800,15,5,1,m,m,-800,400,-800,0,L,S,=,0.48435556184032,0.404331583974246,1.62206663184449,1.65589485447906,1.60272887620629,14644.324842021,14644.8273378169,14644.8273378169,14645.6272945278,0.8,14647.2774399282,14647.2774399282,14648.8774018361,1.6,14650.6749209156,14651.166205674,0.49128475838188,78,Shorter,Middle,66,L,Index
214,Spatial,1243,3,4,72,800,5,5,1,r,r,0,400,0,800,=,L,S,0.481861323848129,0.348702967267684,1.39578944809162,1.89652571756322,1.91603132194275,14652.9249066305,14653.4175146623,14653.4175146623,14654.2173414483,0.8,14655.6378480014,14655.6378480014,14657.2373232524,1.6,14659.2915777243,14659.8461917255,0.554614001217487,78,Longer,Middle,78,L,Middle
214,Spatial,1243,3,4,73,800,7.5,3.33333333333333,1,m,m,-800,400,-800,0,S,=,L,0.469935698081046,0.207980571282446,1.92602440864178,1.91780346306419,1.54909272091245,14661.1750094476,14661.657812803,14661.657812803,14663.257703172,1.6,14665.2179712279,14665.2179712279,14667.6178128992,2.4,14669.6749818586,14670.1422186549,0.467236796264842,66,Shorter,Index,77,L,Ring
214,Spatial,1243,3,4,74,800,15,5,1,l,l,-1600,-400,-1600,-800,=,L,S,0.466528239669145,0.358643716020452,1.5065583213767,1.54580707043465,1.95640151544682,14671.841699212,14672.328047752,14672.328047752,14673.1275306382,0.8,14674.6680576199,14674.6680576199,14676.2678931318,1.6,14677.9750329303,14678.446196345,0.471163414695184,77,Shorter,Ring,78,L,Middle
214,Spatial,1243,3,4,75,400,5,5,2,r,r,0,800,0,400,=,L,S,0.492892593638121,0.43916362547623,1.54261299906263,1.96023231496706,1.54217495580403,14680.5417976341,14681.0480801787,14681.0480801787,14682.6479259563,1.6,14684.2181871278,14684.2181871278,14685.0179988361,0.8,14687.1251663768,14688.4461693977,1.32100302081562,77,Shorter,Ring,77,S,Ring
214,Spatial,1243,3,4,76,800,1.25,3.33333333333333,1,m,m,-800,-400,-800,0,L,S,=,0.31819749422224,0.223596544762431,1.48802915447902,1.3886564702724,1.88956248532113,14690.1418073865,14690.4783111627,14690.4783111627,14693.6778619306,3.2,14695.1983304365,14695.1983304365,14697.5979241277,2.4,14699.1252077996,14699.8462664724,0.721058672788786,66,Longer,Index,66,L,Index
214,Spatial,1243,3,4,77,1600,10,20,2,m,m,-800,800,-800,800,=,L,S,0.489342942852675,0.300797206818481,1.3458329299881,1.56147541889434,1.92769674644588,14701.8752573635,14702.3782394955,14702.3782394955,14703.9783040601,1.6,14705.3482002229,14705.3482002229,14706.1480472195,0.8,14707.8585644232,14710.4783015835,2.61973716037573,66,Equals to,Index,77,S,Ring
214,Spatial,1243,3,4,78,1200,10,5,1,l,l,-1600,0,-1600,-400,=,L,S,0.326394356444285,0.327241818567938,1.78344080058715,1.46211247076166,1.29431098832765,14712.5420700242,14712.8883922422,14712.8883922422,14714.4882614384,1.6,14716.3086530159,14716.3086530159,14718.708495008,2.4,14720.3253405475,14721.2062642396,0.880923692075157,77,Shorter,Ring,66,=,Index
214,Spatial,1243,3,4,79,1200,5,5,1,r,r,0,800,0,1200,S,=,L,0.339471649767643,0.300509378471233,1.73101583116549,1.32895629308552,1.3210836322171,14722.6587049987,14723.0083196383,14723.0083196383,14724.6083351202,1.6,14726.368621526,14726.368621526,14728.7686787763,2.4,14730.2587786777,14731.3742975235,1.11551884579785,77,Longer,Ring,78,=,Middle
214,Spatial,1243,3,4,80,1200,10,7.5,1,l,l,-1600,-800,-1600,-400,=,L,S,0.297702331878678,0.200823291261769,1.64554422726898,1.57852679513986,1.59713233503771,14732.8421255581,14733.1586869888,14733.1586869888,14733.9584842611,0.8,14735.6387359817,14735.6387359817,14737.2385631528,1.6,14738.9754364995,14739.4542994868,0.478862987321918,78,Longer,Middle,78,L,Middle
214,Spatial,1243,3,4,81,1600,20,20,2,l,l,-1600,0,-1600,0,S,=,L,0.454994063607585,0.337231793727881,1.3748148483344,1.68601700946464,1.87531249483906,14741.1921877617,14741.6588082521,14741.6588082521,14742.4586485118,0.8,14743.8687979671,14743.8687979671,14744.6687360716,0.8,14746.5086709616,14746.8942915181,0.385620556487993,78,Equals to,Middle,78,=,Middle
214,Spatial,1243,3,4,82,800,2.5,3.33333333333333,1,m,m,-800,-400,-800,0,=,L,S,0.412678085148761,0.249492063279592,1.40839136858909,1.65609570709719,1.00174139454706,14748.9088867331,14749.339184399,14749.339184399,14750.938911159,1.6,14752.3789879269,14752.3789879269,14754.77897428,2.4,14756.5756050489,14757.0062177875,0.430612738540731,78,Longer,Middle,78,L,Middle
214,Spatial,1243,3,4,83,1200,20,7.5,1,r,r,0,1600,0,1200,=,L,S,0.403330294624353,0.42414429410974,1.53538706580884,1.90409347359789,1.56859009293402,14758.1589273146,14758.5791957426,14758.5791957426,14759.3791091452,0.8,14760.9390616601,14760.9390616601,14762.5390909365,1.6,14764.592320192,14765.5262627896,0.933942597614077,77,Shorter,Ring,66,=,Index
214,Spatial,1243,3,4,84,800,1.25,3.33333333333333,1,m,m,-800,-400,-800,0,S,=,L,0.49119562476776,0.467843311879807,1.12636444710599,1.87612799015459,1.79378492082673,14767.2423599362,14767.7493485663,14767.7493485663,14770.9491473143,3.2,14772.0995355619,14772.0995355619,14774.4990862656,2.4,14776.5090661898,14777.0463247942,0.537258604394083,77,Longer,Ring,77,L,Ring
214,Spatial,1243,3,4,85,1200,5,5,1,l,l,-1600,0,-1600,-400,S,=,L,0.463121135803362,0.47139038120767,1.98500055016394,1.99306981218338,1.60290199039131,14778.9923976304,14779.4695968928,14779.4695968928,14782.6694658965,3.2,14784.6894422919,14784.6894422919,14787.0894565547,2.4,14789.2257956375,14790.0381911763,0.812395538796409,66,Shorter,Index,78,=,Middle
214,Spatial,1243,3,4,86,1600,10,20,2,m,m,-800,800,-800,800,L,S,=,0.28295830682595,0.431368447807886,1.58202836559508,1.5442739303496,1.88842924183092,14791.7925163914,14792.0896535722,14792.0896535722,14793.6893482519,1.6,14795.3098172069,14795.3098172069,14796.109642389,0.8,14797.8092224846,14799.278312555,1.46909007033901,77,Equals to,Ring,78,S,Middle
214,Spatial,1243,3,4,87,800,5,5,1,l,l,-1600,-400,-1600,-800,L,S,=,0.316610812993365,0.399189110995589,1.88319814453084,1.90802859709088,1.86872709517319,14801.3092640916,14801.6399993007,14801.6399993007,14804.0395407011,2.4,14805.9597941413,14805.9597941413,14807.5597085705,1.6,14809.6092901501,14810.0463138869,0.437023736809351,78,Shorter,Middle,66,L,Index
214,Spatial,1243,3,4,88,800,1.66666666666667,5,1,m,m,-800,-400,-800,0,=,L,S,0.275059171335246,0.463012247277422,1.4803087140949,1.70584677784294,1.36249543340801,14812.059333594,14812.3501006549,14812.3501006549,14814.7499448926,2.4,14816.2501226619,14816.2501226619,14817.8499761387,1.6,14819.6926946291,14820.5262720928,0.833577463776237,78,Longer,Middle,66,=,Index
214,Spatial,1243,3,4,89,1200,6.66666666666667,7.5,1,r,r,0,1600,0,1200,L,S,=,0.400407093313198,0.474036664587525,1.1435934456269,1.34084705371135,1.88398771885184,14822.0426766321,14822.460026402,14822.460026402,14824.859936725,2.4,14826.030056551,14826.030056551,14827.6299555817,1.6,14829.1094192099,14830.5663479818,1.45692877192414,78,Shorter,Middle,77,=,Ring
214,Spatial,1243,3,4,90,400,3.33333333333333,1.25,2,r,r,0,800,0,400,S,=,L,0.393501298622222,0.220377865189888,1.24455688018644,1.47092498345742,1.34218199512557,14832.6094471103,14833.020196055,14833.020196055,14835.4202379069,2.4,14836.7001541968,14836.7001541968,14839.9001171954,3.2,14841.5094335083,14841.9263630723,0.416929564034945,66,Shorter,Index,78,=,Middle
214,Spatial,1243,3,4,91,800,5,5,1,m,m,-800,-400,-800,0,L,S,=,0.44418730537415,0.346293003408974,1.44822293557027,1.36676587011701,1.52897873896828,14843.4095280166,14843.8704237925,14843.8704237925,14844.6701264281,0.8,14846.1603894859,14846.1603894859,14847.7603026319,1.6,14849.2762167152,14849.6702625381,0.394045822880798,66,Longer,Index,66,L,Index
214,Spatial,1243,3,4,92,800,7.5,3.33333333333333,1,r,r,0,1200,0,800,L,S,=,0.336592316085621,0.251961347220054,1.47891406965811,1.6098415295302,1.88446658622698,14851.3595351705,14851.7106579011,14851.7106579011,14853.3102467161,1.6,14854.8206583951,14854.8206583951,14857.2205404875,2.4,14858.9928916658,14859.5023441014,0.509452435626372,78,Shorter,Middle,66,L,Index
214,Spatial,1243,3,4,93,400,2.5,5,2,m,m,-800,-400,-800,-400,L,S,=,0.460887478835622,0.403561455434024,1.46198166454953,1.09538558756473,1.95546287316525,14861.5429271786,14862.0207850478,14862.0207850478,14863.6203866949,1.6,14865.1208034618,14865.1208034618,14865.9206514209,0.8,14867.1763443148,14868.2302169328,1.053872618073,77,Equals to,Ring,78,S,Middle
214,Spatial,1243,3,4,94,400,5,5,2,m,m,-800,0,-800,-400,L,S,=,0.473759443072697,0.220964609614507,1.8907373527705,1.47858848473003,1.33282568963066,14870.3430298994,14870.8307813072,14870.8307813072,14872.4307351951,1.6,14874.3507951916,14874.3507951916,14875.1506559827,0.8,14876.7763280728,14877.2303455745,0.454017501682756,78,Shorter,Middle,78,S,Middle
214,Spatial,1243,3,4,95,1200,3.33333333333333,7.5,1,l,l,-1600,-800,-1600,-400,=,L,S,0.468270974442059,0.318575811539608,1.68541318032389,1.25478463216175,1.04602816353974,14878.70970773,14879.1910655508,14879.1910655508,14881.590983573,2.4,14883.3111071524,14883.3111071524,14884.9109850102,1.6,14886.3097848508,14886.8065129896,0.496728138776234,78,Longer,Middle,66,=,Index
214,Spatial,1243,3,4,96,400,1.66666666666667,1.25,2,l,l,-1600,-1200,-1600,-1200,L,S,=,0.262015618873921,0.280483936859923,1.98753503610502,1.2510364670056,1.88702605040033,14888.0097969771,14888.2912626516,14888.2912626516,14890.6907934656,2.4,14892.7110171995,14892.7110171995,14895.91107291,3.2,14897.3098284799,14897.9663311718,0.656502691850619,77,Equals to,Ring,66,L,Index
