Subject,Task,SequenceOrder,ListNo,RunNo,TrialNo,Aud_Probe_Dist,Aud_Standard_Vel,Aud_Probe_Vel,Main_Control,Aud_Std_StartCode,Aud_Probe_StartCode,Aud_Std_StartPt,Aud_Std_EndPt,Aud_Probe_StartPt,Aud_Probe_EndPt,RespIndex,RespMiddle,RespRing,ISI_Cross_Std,ISI_Cross_Probe,ISI_Std_Probe,ISI_Probe_Response,ITI,TrialOnset,StdOnset,StdOnsetByStop,StdOffset,StdDur,ProbeOnset,ProbeOnsetByStop,ProbeOffset,ProbeDur,RespWinStart,RespTime,RT,CorrectKC,CorrectResponse,CorrectFinger,SubjRespKC,SubjResponse,SubjRespFinger
232,Temporal,3421,1,4,1,800,5,5,1,l,l,-1600,-1200,-1600,-800,=,L,S,0.340108800202971,0.427574419770549,1.57442206284863,1.75928541735315,1.29521079424328,1299632.17195124,1299632.52320293,1299632.52320293,1299633.32505687,0.8,1299634.9254019,1299634.9254019,1299636.52520213,1.6,1299638.42194631,1299639.25111238,0.829166075214744,78,Longer,Middle,66,=,Index
232,Temporal,3421,1,4,2,1200,6.66666666666667,7.5,1,m,m,-800,800,-800,400,=,L,S,0.26294140045146,0.233822680830987,1.4767008529241,1.74187880032745,1.87454392449843,1299640.72199157,1299640.99553856,1299640.99553856,1299643.39542611,2.4,1299644.89565777,1299644.89565777,1299646.49541372,1.6,1299648.3720086,1299648.875096,0.503087399993092,77,Shorter,Ring,66,=,Index
232,Temporal,3421,1,4,3,400,2.5,1.25,2,l,l,-1600,-800,-1600,-1200,S,=,L,0.291185849213285,0.388621293778139,1.214545650483,1.04549902252852,1.1717419803697,1299650.90537748,1299651.21568359,1299651.21568359,1299654.41560456,3.2,1299655.66554895,1299655.66554895,1299658.86549206,3.2,1299660.07207398,1299660.59507453,0.52300055231899,78,Equals to,Middle,78,=,Middle
232,Temporal,3421,1,4,4,400,10,5,2,r,r,0,800,0,400,S,=,L,0.349149933589787,0.489356762102565,1.44075289347221,1.26783712859027,1.39079113179541,1299661.92216185,1299662.28574004,1299662.28574004,1299663.08551743,0.8,1299664.56579038,1299664.56579038,1299665.36570154,0.8,1299666.7887922,1299667.20316529,0.414373091422021,78,Equals to,Middle,78,=,Middle
232,Temporal,3421,1,4,5,800,15,5,1,r,r,0,1200,0,800,=,L,S,0.393433753656609,0.209691467540499,1.57819136010541,1.87433458006853,1.42684556300279,1299668.73887025,1299669.14588474,1299669.14588474,1299669.94562555,0.8,1299671.54606907,1299671.54606907,1299673.14563447,1.6,1299675.15550885,1299675.66694191,0.511433068197221,78,Longer,Middle,78,L,Middle
232,Temporal,3421,1,4,6,1200,10,5,1,l,l,-1600,0,-1600,-400,L,S,=,0.29945990233379,0.236285686255291,1.00942957281076,1.48438772539581,1.2509337859291,1299677.23888549,1299677.55621348,1299677.55621348,1299679.15571118,1.6,1299680.19613679,1299680.19613679,1299682.5959435,2.4,1299684.22223088,1299685.24307115,1.02084027067758,66,Longer,Index,66,L,Index
232,Temporal,3421,1,4,7,800,5,5,1,m,m,-800,-400,-800,0,=,L,S,0.34333579966152,0.299625129224245,1.55743836838199,1.2775233697147,1.72747264055575,1299686.63895963,1299686.99617343,1299686.99617343,1299687.79586516,0.8,1299689.37646386,1299689.37646386,1299690.97588585,1.6,1299692.40519655,1299692.88308462,0.47788806958124,78,Longer,Middle,78,L,Middle
232,Temporal,3421,1,4,8,400,5,5,2,r,r,0,400,0,400,S,=,L,0.321442550372412,0.317665080209785,1.88096788446428,1.84234871148269,1.50749586736656,1299694.75566232,1299695.09649243,1299695.09649243,1299695.8962063,0.8,1299697.80630218,1299697.80630218,1299698.6060401,0.8,1299700.58899886,1299701.20289935,0.61390048568137,78,Equals to,Middle,78,=,Middle
232,Temporal,3421,1,4,9,1600,7.5,20,2,r,r,0,1200,0,1600,S,=,L,0.208078803469613,0.280836695236293,1.39337217289134,1.01272746512078,1.84789450687123,1299702.8557635,1299703.07651159,1299703.07651159,1299704.67629481,1.6,1299706.09656044,1299706.09656044,1299706.89632756,0.8,1299708.05570922,1299708.5232357,0.467526480555534,66,Shorter,Index,66,S,Index
232,Temporal,3421,1,4,10,400,10,5,2,m,m,-800,0,-800,-400,=,L,S,0.330992165745429,0.204618280893537,1.78158450035078,1.01977154141384,1.60154009321213,1299710.52242664,1299710.86655588,1299710.86655588,1299711.66639935,0.8,1299713.48647012,1299713.48647012,1299714.2862536,0.8,1299715.45575625,1299715.9232051,0.467448846437037,66,Equals to,Index,66,=,Index
232,Temporal,3421,1,4,11,1600,15,20,2,r,r,0,1200,0,1600,S,=,L,0.497569785734811,0.24694850977051,1.87034331727225,1.70956283979553,1.02972980577146,1299717.67248088,1299718.18678926,1299718.18678926,1299718.98661476,0.8,1299720.88636124,1299720.88636124,1299721.68632213,0.8,1299723.53914813,1299723.99508018,0.455932049080729,78,Equals to,Middle,78,=,Middle
232,Temporal,3421,1,4,12,400,5,5,2,r,r,0,400,0,400,L,S,=,0.427281420662593,0.340644185587067,1.60559024975037,1.8338278719817,1.7349521697673,1299725.17250591,1299725.61670201,1299725.61670201,1299726.41668021,0.8,1299728.05689775,1299728.05689775,1299728.85670753,0.8,1299730.83919567,1299731.41896088,0.579765211325139,77,Equals to,Ring,77,=,Ring
232,Temporal,3421,1,4,13,1600,3.75,5,2,l,l,-1600,-400,-1600,0,=,L,S,0.362266404512007,0.34670868898703,1.861752263885,1.71926994166573,1.33653719587042,1299733.30591277,1299733.68702024,1299733.68702024,1299736.88684176,3.2,1299738.78699695,1299738.78699695,1299741.98691214,3.2,1299743.85552514,1299744.45914264,0.603617493528873,66,Equals to,Index,66,=,Index
232,Temporal,3421,1,4,14,800,1.25,3.33333333333333,1,r,r,0,400,0,800,L,S,=,0.230301220944405,0.291217982103547,1.76646167448551,1.30065060592108,1.86043131064435,1299745.93935845,1299746.18674755,1299746.18674755,1299749.38684369,3.2,1299751.18732083,1299751.18732083,1299753.58677882,2.4,1299755.03934414,1299755.80306565,0.763721510535106,78,Shorter,Middle,78,S,Middle
232,Temporal,3421,1,4,15,800,3.75,3.33333333333333,1,r,r,0,1200,0,800,L,S,=,0.24736808590981,0.266783433598114,1.35386454290415,1.92169702939708,1.62167294667517,1299757.8227382,1299758.08738582,1299758.08738582,1299761.28700107,3.2,1299762.67723834,1299762.67723834,1299765.07726286,2.4,1299767.13942254,1299767.64294591,0.503523370018229,78,Shorter,Middle,78,S,Middle
232,Temporal,3421,1,4,16,1200,5,5,1,m,m,-800,0,-800,400,=,L,S,0.420809572946569,0.403640108881523,1.0132500104337,1.53328372450838,1.90489510059542,1299769.42285991,1299769.85732127,1299769.85732127,1299771.45721453,1.6,1299772.49722213,1299772.49722213,1299774.8972335,2.4,1299776.57282177,1299777.07511807,0.502296301769093,78,Longer,Middle,78,L,Middle
232,Temporal,3421,1,4,17,800,1.25,3.33333333333333,1,r,r,0,400,0,800,S,=,L,0.276037227805824,0.414478028293518,1.51588889714411,1.81367766069148,1.91713888887147,1299779.12289738,1299779.41768693,1299779.41768693,1299782.61752674,3.2,1299784.16774965,1299784.16774965,1299786.56753775,2.4,1299788.53961989,1299789.12297405,0.583354159723967,66,Shorter,Index,66,S,Index
232,Temporal,3421,1,4,18,400,1.66666666666667,1.25,2,m,m,-800,-400,-800,-400,S,=,L,0.259456179814137,0.241485401904599,1.92977015291651,1.33096989901222,1.74736178821567,1299791.18961749,1299791.46775453,1299791.46775453,1299793.86758786,2.4,1299795.83783767,1299795.83783767,1299799.03771245,3.2,1299800.52297296,1299801.0752403,0.552267333259806,77,Longer,Ring,78,=,Middle
232,Temporal,3421,1,4,19,1200,10,7.5,1,m,m,-800,0,-800,400,L,S,=,0.222334380104879,0.30231024165419,1.55844093855461,1.47318162166403,1.02110039614531,1299802.97300867,1299803.20805908,1299803.20805908,1299804.00781273,0.8,1299805.59803421,1299805.59803421,1299807.197837,1.6,1299808.80641698,1299809.46691664,0.660499652149156,66,Longer,Index,66,L,Index
232,Temporal,3421,1,4,20,800,2.5,3.33333333333333,1,m,m,-800,-400,-800,0,L,S,=,0.246141136645383,0.298818939794465,1.98339431948891,1.95225956001433,1.71423713314291,1299810.63976965,1299810.89793418,1299810.89793418,1299812.49782006,1.6,1299814.5082574,1299814.5082574,1299816.90774202,2.4,1299819.0064215,1299819.56318808,0.556766583584249,66,Longer,Index,66,L,Index
232,Temporal,3421,1,4,21,1200,3.33333333333333,7.5,1,l,l,-1600,-800,-1600,-400,S,=,L,0.429067772664656,0.225493879101083,1.25581274662431,1.76755572147935,1.2455621374315,1299821.43982265,1299821.88832359,1299821.88832359,1299824.28787269,2.4,1299825.57843095,1299825.57843095,1299827.17786867,1.6,1299829.08986912,1299829.6352611,0.545391976833344,66,Shorter,Index,66,S,Index
232,Temporal,3421,1,4,22,800,15,5,1,m,m,-800,400,-800,0,=,L,S,0.20968749358766,0.33802153888181,1.73072494327869,1.49421314683025,1.40837144165219,1299831.03988629,1299831.26827589,1299831.26827589,1299832.06813284,0.8,1299833.83827974,1299833.83827974,1299835.43811236,1.6,1299837.08990481,1299838.10721112,1.01730631408282,78,Longer,Middle,66,=,Index
232,Temporal,3421,1,4,23,1200,2.5,5,1,m,m,-800,0,-800,400,S,=,L,0.408806733026027,0.441370886304242,1.61236157012305,1.36847509095781,1.99716752237978,1299839.67327262,1299840.09843874,1299840.09843874,1299843.29830036,3.2,1299844.93856474,1299844.93856474,1299847.33838716,2.4,1299848.85667797,1299849.94721265,1.09053467446938,66,Shorter,Index,66,S,Index
232,Temporal,3421,1,4,24,400,3.33333333333333,1.25,2,l,l,-1600,-800,-1600,-1200,S,=,L,0.28651083519139,0.25655308637608,1.25574043074893,1.87291822754427,1.72594548683326,1299852.10667249,1299852.40866983,1299852.40866983,1299854.80849802,2.4,1299856.09882434,1299856.09882434,1299859.29863464,3.2,1299861.30669168,1299861.83515421,0.528462530113757,77,Longer,Ring,77,L,Ring
232,Temporal,3421,1,4,25,1600,6.66666666666667,5,2,m,m,-800,800,-800,800,L,S,=,0.282869652209246,0.343652796211059,1.01267869497081,1.19536985442261,1.92456527009001,1299863.29010813,1299863.58878709,1299863.58878709,1299865.98857037,2.4,1299867.038826,1299867.038826,1299870.23859395,3.2,1299871.59008702,1299872.08320485,0.493117831414565,66,Longer,Index,77,=,Ring
232,Temporal,3421,1,4,26,800,5,5,1,r,r,0,400,0,800,S,=,L,0.223552013214244,0.293801573317905,1.0081250595457,1.56438720333662,1.683801120221,1299874.15684595,1299874.39913687,1299874.39913687,1299875.19862393,0.8,1299876.22895646,1299876.22895646,1299877.8286999,1.6,1299879.54013941,1299880.04307058,0.502931169234216,77,Longer,Ring,77,L,Ring
232,Temporal,3421,1,4,27,1200,10,7.5,1,m,m,-800,0,-800,400,L,S,=,0.225553446304293,0.25398201495775,1.64794193785036,1.09222223109731,1.15334551721188,1299881.87351701,1299882.11913946,1299882.11913946,1299882.91889375,0.8,1299884.59910729,1299884.59910729,1299886.19891521,1.6,1299887.42358911,1299887.97913214,0.555543033406138,66,Longer,Index,66,L,Index
232,Temporal,3421,1,4,28,1600,20,20,2,r,r,0,1600,0,1600,S,=,L,0.337989442975427,0.284081178947401,1.6742849982099,1.77269115807362,1.87296588479095,1299889.29022586,1299889.6391989,1299889.6391989,1299890.43897339,0.8,1299892.14913799,1299892.14913799,1299892.94887495,0.8,1299894.85695143,1299895.38696343,0.530012004310265,78,Equals to,Middle,78,=,Middle
232,Temporal,3421,1,4,29,1200,3.33333333333333,7.5,1,l,l,-1600,-800,-1600,-400,=,L,S,0.310869088245453,0.443955040531241,1.17362561244239,1.93131310910599,1.21747273864158,1299897.40700523,1299897.7292702,1299897.7292702,1299900.12906536,2.4,1299901.3295722,1299901.3295722,1299902.92902083,1.6,1299905.00702635,1299906.37116778,1.36414143117145,77,Shorter,Ring,77,S,Ring
232,Temporal,3421,1,4,30,1200,5,5,1,r,r,0,1600,0,1200,=,L,S,0.488361340337196,0.207800044874954,1.86521076002944,1.95389534382049,1.33651736002417,1299907.74040689,1299908.2393498,1299908.2393498,1299911.43926404,3.2,1299913.33954787,1299913.33954787,1299915.73935072,2.4,1299917.84038168,1299918.48322301,0.642841331893578,77,Shorter,Ring,77,S,Ring
232,Temporal,3421,1,4,31,1200,5,5,1,r,r,0,1600,0,1200,=,L,S,0.34245951986458,0.313233430284682,1.46231935482398,1.64456826447169,1.78647155978521,1299919.9738142,1299920.32967422,1299920.32967422,1299923.5295028,3.2,1299925.01977228,1299925.01977228,1299927.41967137,2.4,1299929.22385061,1299930.08338033,0.859529724810272,77,Shorter,Ring,77,S,Ring
232,Temporal,3421,1,4,32,400,1.66666666666667,1.25,2,r,r,0,400,0,400,S,=,L,0.373193597135528,0.239325492695316,1.99070995442764,1.9166044479478,1.31604029640389,1299932.02389623,1299932.40960047,1299932.40960047,1299934.80957111,2.4,1299936.83003095,1299936.83003095,1299940.02980917,3.2,1299942.09062019,1299942.57124086,0.480620662216097,77,Longer,Ring,78,=,Middle
232,Temporal,3421,1,4,33,1200,5,5,1,l,l,-1600,-800,-1600,-400,=,L,S,0.466411969992333,0.455811752047083,1.98319573727285,1.97401882116493,1.51928044278245,1299944.04058308,1299944.52007672,1299944.52007672,1299946.11992538,1.6,1299948.1399839,1299948.1399839,1299950.53974473,2.4,1299952.65727037,1299953.09122426,0.433953892905265,78,Longer,Middle,78,L,Middle
232,Temporal,3421,1,4,34,800,2.5,3.33333333333333,1,r,r,0,400,0,800,S,=,L,0.36761920309753,0.437542193756324,1.8724621407852,1.52085671093193,1.80824953958383,1299954.75735872,1299955.14017093,1299955.14017093,1299956.73998142,1.6,1299958.65013889,1299958.65013889,1299961.04996805,2.4,1299962.7069283,1299963.24326011,0.536331807030365,77,Longer,Ring,77,L,Ring
232,Temporal,3421,1,4,35,1200,6.66666666666667,7.5,1,l,l,-1600,0,-1600,-400,L,S,=,0.386379957919035,0.463354805879011,1.71461674419195,1.84377299098394,1.78419940546935,1299965.19076372,1299965.59019124,1299965.59019124,1299967.99011183,2.4,1299969.74054479,1299969.74054479,1299971.34009543,1.6,1299973.34080367,1299973.81111875,0.47031507617794,78,Shorter,Middle,78,S,Middle
232,Temporal,3421,1,4,36,800,1.66666666666667,5,1,r,r,0,400,0,800,L,S,=,0.394456934639342,0.494869420431852,1.39854909873704,1.20788862421077,1.04517710566206,1299975.74086724,1299976.15035415,1299976.15035415,1299978.55032479,2.4,1299979.9706164,1299979.9706164,1299981.57045416,1.6,1299982.92413767,1299983.37120146,0.447063794126734,78,Shorter,Middle,78,S,Middle
232,Temporal,3421,1,4,37,1600,15,20,2,l,l,-1600,-400,-1600,0,S,=,L,0.408751570912888,0.373993952376653,1.76679262462631,1.47888215955307,1.66775712622883,1299984.55754613,1299984.98072007,1299984.98072007,1299985.78044997,0.8,1299987.57058028,1299987.57058028,1299988.37055399,0.8,1299990.00757023,1299990.41930254,0.41173230484128,78,Equals to,Middle,78,=,Middle
232,Temporal,3421,1,4,38,1200,2.5,5,1,m,m,-800,0,-800,400,S,=,L,0.460425405493462,0.291792642860839,1.44362493549892,1.94537676196724,1.15674455447901,1299992.24090414,1299992.72070446,1299992.72070446,1299995.92045637,3.2,1299997.40073671,1299997.40073671,1299999.8007776,2.4,1300001.9075862,1300002.82724804,0.919661836000159,66,Shorter,Index,66,S,Index
232,Temporal,3421,1,4,39,1600,10,20,2,m,m,-800,800,-800,800,=,L,S,0.250875272775732,0.267443292795765,1.57722682709314,1.77785569104217,1.9128367435772,1300004.12434003,1300004.3908374,1300004.3908374,1300005.99063698,1.6,1300007.60087299,1300007.60087299,1300008.40087301,0.8,1300010.34104138,1300010.83526264,0.494221253320575,77,Shorter,Ring,77,S,Ring
232,Temporal,3421,1,4,40,400,2.5,5,2,l,l,-1600,-1200,-1600,-1200,L,S,=,0.260587946332726,0.390195302623912,1.96069577730679,1.79073748805691,1.58185501393309,1300012.89104578,1300013.17096697,1300013.17096697,1300014.77074795,1.6,1300016.7710611,1300016.7710611,1300017.57082469,0.8,1300019.50770278,1300019.99523288,0.487530099228024,78,Shorter,Middle,78,S,Middle
232,Temporal,3421,1,4,41,1200,3.33333333333333,7.5,1,r,r,0,800,0,1200,L,S,=,0.286192999070446,0.410661967698819,1.99234405604071,1.9226736521065,1.58168225343213,1300021.72441458,1300022.02093198,1300022.02093198,1300024.4208686,2.4,1300026.45129513,1300026.45129513,1300028.0511069,1.6,1300030.12449685,1300030.5871921,0.462695256574079,78,Shorter,Middle,78,S,Middle
232,Temporal,3421,1,4,42,800,7.5,3.33333333333333,1,l,l,-1600,-400,-1600,-800,S,=,L,0.366790061271624,0.260994990272445,1.65277698911711,1.50822956711215,1.78511250284259,1300032.32447053,1300032.71120904,1300032.71120904,1300034.31105033,1.6,1300035.99152757,1300035.99152757,1300038.39125568,2.4,1300040.0411663,1300040.51544181,0.474275516346097,77,Longer,Ring,77,L,Ring
232,Temporal,3421,1,4,43,800,5,5,1,m,m,-800,400,-800,0,=,L,S,0.329104893206747,0.443311324295937,1.66889903893803,1.24932713702989,1.76791850536324,1300042.45788221,1300042.80155687,1300042.80155687,1300045.20141972,2.4,1300046.91169403,1300046.91169403,1300048.51148334,1.6,1300049.90788904,1300050.86723506,0.959346025716513,77,Shorter,Ring,77,S,Ring
232,Temporal,3421,1,4,44,1600,6.66666666666667,5,2,r,r,0,1600,0,1600,S,=,L,0.27287460561412,0.250168227847283,1.4291203593519,1.99030005712565,1.51619073523758,1300052.79129414,1300053.0814728,1300053.0814728,1300055.48139467,2.4,1300056.93158633,1300056.93158633,1300060.13142742,3.2,1300062.25802374,1300063.13142751,0.873403768520802,77,Longer,Ring,78,=,Middle
232,Temporal,3421,1,4,45,800,3.75,3.33333333333333,1,m,m,-800,400,-800,0,L,S,=,0.21641564383089,0.302961152286635,1.50039493896699,1.04797363536984,1.54778527704518,1300064.80807498,1300065.04194195,1300065.04194195,1300068.24169964,3.2,1300069.77178194,1300069.77178194,1300072.17162169,2.4,1300073.37476566,1300074.51521083,1.14044517138973,78,Shorter,Middle,77,=,Ring
232,Temporal,3421,1,4,46,800,5,5,1,l,l,-1600,-1200,-1600,-800,L,S,=,0.481656467655697,0.396661194648494,1.99794519377009,1.28169406241263,1.7751558170236,1300076.22478126,1300076.72196906,1300076.72196906,1300077.52167298,0.8,1300079.55185377,1300079.55185377,1300081.15168993,1.6,1300082.59143631,1300083.11530239,0.523866076720878,66,Longer,Index,66,L,Index
232,Temporal,3421,1,4,47,800,1.66666666666667,5,1,l,l,-1600,-1200,-1600,-800,S,=,L,0.265523570008788,0.205691372222787,1.89654176298609,1.11580361078835,1.58430651177922,1300085.04148742,1300085.32213697,1300085.32213697,1300087.72197672,2.4,1300089.65217791,1300089.65217791,1300091.25204839,1.6,1300092.52489535,1300093.0754732,0.550577851710841,66,Shorter,Index,66,S,Index
232,Temporal,3421,1,4,48,400,2.5,1.25,2,m,m,-800,0,-800,-400,L,S,=,0.204332196699142,0.360431411755908,1.19568164072503,1.42434802503107,1.29144979091709,1300094.80826645,1300095.03224121,1300095.03224121,1300098.23205183,3.2,1300099.4522354,1300099.4522354,1300102.65198635,3.2,1300104.22491889,1300104.71525632,0.490337438881397,77,Equals to,Ring,77,=,Ring
232,Temporal,3421,1,4,49,400,2.5,5,2,l,l,-1600,-1200,-1600,-1200,L,S,=,0.359530253230339,0.35213513052405,1.71012639753522,1.64130288296487,1.38386788840424,1300106.07499552,1300106.45241409,1300106.45241409,1300108.05219025,1.6,1300109.80246603,1300109.80246603,1300110.60231912,0.8,1300112.39162886,1300112.85138391,0.459755048388615,78,Shorter,Middle,78,S,Middle
232,Temporal,3421,1,4,50,1200,2.5,5,1,r,r,0,800,0,1200,=,L,S,0.313926523080223,0.347676164917714,1.76538653691579,1.69565860213605,1.861127099251,1300114.39171355,1300114.72276273,1300114.72276273,1300117.92224549,3.2,1300119.72260457,1300119.72260457,1300122.12235995,2.4,1300123.97461011,1300124.45131827,0.476708159316331,77,Shorter,Ring,77,S,Ring
232,Temporal,3421,1,4,51,800,1.66666666666667,5,1,m,m,-800,-400,-800,0,L,S,=,0.396703313428333,0.255898654925805,1.65293547055662,1.89243531547267,1.13100228440722,1300126.47507784,1300126.8828305,1300126.8828305,1300129.28264971,2.4,1300130.96267591,1300130.96267591,1300132.56253901,1.6,1300134.59176289,1300135.05126419,0.459501293720678,78,Shorter,Middle,78,S,Middle
232,Temporal,3421,1,4,52,1200,10,5,1,l,l,-1600,0,-1600,-400,L,S,=,0.307515798213971,0.216202087308776,1.26442341228877,1.08941115999248,1.86387356173791,1300136.3418548,1300136.66304027,1300136.66304027,1300138.26249467,1.6,1300139.55280559,1300139.55280559,1300141.95259433,2.4,1300143.19184771,1300143.73923083,0.547383120516315,66,Longer,Index,66,L,Index
232,Temporal,3421,1,4,53,800,7.5,3.33333333333333,1,l,l,-1600,-400,-1600,-800,L,S,=,0.470750503637897,0.258085833047505,1.4224644119761,1.75704976832998,1.91448748409282,1300145.75854216,1300146.24320071,1300146.24320071,1300147.84298329,1.6,1300149.29306011,1300149.29306011,1300151.69277955,2.4,1300153.59195378,1300154.04314789,0.451194111024961,66,Longer,Index,66,L,Index
232,Temporal,3421,1,4,54,1200,10,7.5,1,m,m,-800,0,-800,400,S,=,L,0.349118121445371,0.407715625783119,1.50668607088518,1.31592014704877,1.77003478398716,1300156.10859698,1300156.47325949,1300156.47325949,1300157.27299998,0.8,1300158.81335726,1300158.81335726,1300160.41309525,1.6,1300161.87528495,1300162.37924558,0.503960623405874,77,Longer,Ring,77,L,Ring
232,Temporal,3421,1,4,55,1200,10,5,1,l,l,-1600,0,-1600,-400,L,S,=,0.389219946004553,0.442766557643755,1.49103412833696,1.33563482803678,1.81752366848622,1300164.29204064,1300164.69341575,1300164.69341575,1300166.29318902,1.6,1300167.81335437,1300167.81335437,1300170.21315081,2.4,1300171.69205751,1300172.13926086,0.447203350951895,66,Longer,Index,66,L,Index
232,Temporal,3421,1,4,56,1200,10,5,1,m,m,-800,800,-800,400,=,L,S,0.383012206298809,0.359011142283996,1.31954929454898,1.06723395382519,1.79977158839347,1300174.10875835,1300174.5035769,1300174.5035769,1300176.10307878,1.6,1300177.46346027,1300177.46346027,1300179.86332953,2.4,1300181.07538915,1300182.57120942,1.49582026852295,78,Longer,Middle,66,=,Index
232,Temporal,3421,1,4,57,1200,6.66666666666667,7.5,1,m,m,-800,800,-800,400,=,L,S,0.386252166651481,0.403276764609733,1.62561227169908,1.76686649723563,1.51156880811016,1300184.52549736,1300184.92368946,1300184.92368946,1300187.32351381,2.4,1300188.98366695,1300188.98366695,1300190.58352781,1.6,1300192.49219806,1300192.94734802,0.455149960238487,77,Shorter,Ring,77,S,Ring
232,Temporal,3421,1,4,58,1200,3.33333333333333,7.5,1,m,m,-800,0,-800,400,=,L,S,0.457954298175328,0.364538020492176,1.13255659296767,1.98274809308663,1.13721520536776,1300194.62555427,1300195.10386928,1300195.10386928,1300197.50367149,2.4,1300198.67390039,1300198.67390039,1300200.273665,1.6,1300202.4088646,1300202.89929314,0.490428546676412,77,Shorter,Ring,77,S,Ring
232,Temporal,3421,1,4,59,800,2.5,3.33333333333333,1,r,r,0,400,0,800,S,=,L,0.252078245513382,0.295728539211136,1.94965924653983,1.95357770525053,1.37851798919731,1300204.19225032,1300204.46387282,1300204.46387282,1300206.0636971,1.6,1300208.04387767,1300208.04387767,1300210.44368213,2.4,1300212.5422551,1300214.27529349,1.73303838795982,77,Longer,Ring,77,L,Ring
232,Temporal,3421,1,4,60,800,2.5,3.33333333333333,1,l,l,-1600,-1200,-1600,-800,L,S,=,0.452120662116699,0.25399966966741,1.95557844150995,1.65998027623565,1.29521905582851,1300215.80901172,1300216.27396179,1300216.27396179,1300217.87376715,1.6,1300219.86412228,1300219.86412228,1300222.26396844,2.4,1300224.07569712,1300224.61136166,0.535664538387209,66,Longer,Index,77,=,Ring
232,Temporal,3421,1,4,61,1600,5,5,2,l,l,-1600,-400,-1600,0,L,S,=,0.200989415831743,0.270871442948203,1.00481095889436,1.40353105661803,1.50642804775148,1300226.059077,1300226.2742935,1300226.2742935,1300228.67413646,2.4,1300229.71423902,1300229.71423902,1300232.91412406,3.2,1300234.45913535,1300235.73143951,1.27230416215025,66,Longer,Index,66,L,Index
232,Temporal,3421,1,4,62,400,3.33333333333333,1.25,2,r,r,0,800,0,400,L,S,=,0.346211727130193,0.371370080523286,1.35491753578949,1.15358297425468,1.51532726446221,1300237.39245717,1300237.75444804,1300237.75444804,1300240.15428618,2.4,1300241.54456868,1300241.54456868,1300244.74436903,3.2,1300246.04247292,1300246.55538553,0.512912607751787,66,Longer,Index,66,L,Index
232,Temporal,3421,1,4,63,1600,20,20,2,r,r,0,1600,0,1600,L,S,=,0.441691277779441,0.243630454976577,1.24486846232582,1.87314587443918,1.44720766886886,1300248.2258274,1300248.68449328,1300248.68449328,1300249.48432231,0.8,1300250.75454492,1300250.75454492,1300251.55439384,0.8,1300253.57592017,1300253.94737818,0.371458014473319,77,Equals to,Ring,77,=,Ring
232,Temporal,3421,1,4,64,1600,10,20,2,r,r,0,1600,0,1600,L,S,=,0.38014225603504,0.3085897699285,1.98156104242289,1.32653004137453,1.04090665984517,1300255.5592698,1300255.95478642,1300255.95478642,1300257.55453981,1.6,1300259.57489956,1300259.57489956,1300260.37432021,0.8,1300261.85924549,1300262.28330809,0.42406260012649,78,Shorter,Middle,78,S,Middle
232,Temporal,3421,1,4,65,400,1.25,1.25,2,l,l,-1600,-1200,-1600,-1200,L,S,=,0.279604629288908,0.381202666804155,1.51402039563407,1.9081055355385,1.60119529043748,1300263.49261866,1300263.78477411,1300263.78477411,1300266.98464632,3.2,1300268.52496927,1300268.52496927,1300271.72477925,3.2,1300273.77605131,1300274.29137113,0.515319817932323,77,Equals to,Ring,77,=,Ring
232,Temporal,3421,1,4,66,800,5,5,1,m,m,-800,400,-800,0,L,S,=,0.209776518933076,0.205570599394877,1.88939153404352,1.55893367119565,1.96354637044734,1300276.04273758,1300276.26495078,1300276.26495078,1300278.66475973,2.4,1300280.5849458,1300280.5849458,1300282.18483328,1.6,1300283.87605392,1300284.75536205,0.879308132221922,78,Shorter,Middle,78,S,Middle
232,Temporal,3421,1,4,67,1200,6.66666666666667,7.5,1,l,l,-1600,0,-1600,-400,S,=,L,0.430634644857592,0.205824598882317,1.16568550037072,1.1896805579441,1.75824601451893,1300286.87611262,1300287.32517561,1300287.32517561,1300289.72500188,2.4,1300290.9253047,1300290.9253047,1300292.52509306,1.6,1300293.85951332,1300294.41131296,0.551799641689286,66,Shorter,Index,66,S,Index
232,Temporal,3421,1,4,68,1200,10,7.5,1,r,r,0,800,0,1200,L,S,=,0.404163453736184,0.37324111256681,1.1214984200623,1.76708841519885,1.33807641495674,1300296.30952789,1300296.72516073,1300296.72516073,1300297.52499072,0.8,1300298.67545403,1300298.67545403,1300300.27497163,1.6,1300302.19284027,1300302.73940022,0.546559942187741,66,Longer,Index,66,L,Index
232,Temporal,3421,1,4,69,1200,5,5,1,l,l,-1600,0,-1600,-400,=,L,S,0.49544137994484,0.431065668729422,1.03163370927928,1.45650772285384,1.23791132447295,1300304.22623193,1300304.7353077,1300304.7353077,1300307.93512601,3.2,1300308.98535309,1300308.98535309,1300311.38534201,2.4,1300312.97623722,1300313.69120803,0.714970810338855,77,Shorter,Ring,77,S,Ring
232,Temporal,3421,1,4,70,800,15,5,1,r,r,0,1200,0,800,S,=,L,0.365523413810822,0.238241634012071,1.87485999721399,1.74385876587423,1.66350605934339,1300315.07631755,1300315.4555525,1300315.4555525,1300316.25531769,0.8,1300318.16572154,1300318.16572154,1300319.76551086,1.6,1300321.65962634,1300322.29948325,0.639856909401715,77,Longer,Ring,77,L,Ring
232,Temporal,3421,1,4,71,800,1.66666666666667,5,1,l,l,-1600,-1200,-1600,-800,L,S,=,0.329472330228955,0.386339952304287,1.39474660147333,1.68886511207512,1.5737423374031,1300324.1263537,1300324.47560905,1300324.47560905,1300326.87543628,2.4,1300328.30593005,1300328.30593005,1300329.90539054,1.6,1300331.74308215,1300332.18737028,0.444288124563172,78,Shorter,Middle,78,S,Middle
232,Temporal,3421,1,4,72,1200,2.5,5,1,r,r,0,800,0,1200,L,S,=,0.480286320723847,0.35146585646012,1.36109248905422,1.26241266614686,1.18712306382387,1300333.90974013,1300334.40592376,1300334.40592376,1300337.60579597,3.2,1300339.00585812,1300339.00585812,1300341.40562312,2.4,1300342.82649511,1300343.51559612,0.689101003343239,78,Shorter,Middle,78,S,Middle
232,Temporal,3421,1,4,73,800,1.25,3.33333333333333,1,l,l,-1600,-1200,-1600,-800,=,L,S,0.388267495273588,0.325882907005079,1.37854380991574,1.86376030741759,1.20393152734766,1300344.75985515,1300345.165889,1300345.165889,1300348.36566336,3.2,1300349.76600301,1300349.76600301,1300352.16587355,2.4,1300354.17652107,1300354.69146435,0.514943285379559,77,Shorter,Ring,77,S,Ring
232,Temporal,3421,1,4,74,1200,5,5,1,m,m,-800,0,-800,400,=,L,S,0.296029621549037,0.477576275988655,1.86998057594355,1.93022897537008,1.13716409937999,1300356.0432576,1300356.35621418,1300356.35621418,1300357.95607824,1.6,1300359.86623957,1300359.86623957,1300362.26609504,2.4,1300364.34323136,1300364.88355908,0.540327718481421,78,Longer,Middle,66,=,Index
232,Temporal,3421,1,4,75,400,1.25,1.25,2,r,r,0,400,0,400,=,L,S,0.271945461208644,0.374576779553834,1.31374534777298,1.23245927132107,1.406498539683,1300366.17666126,1300366.46632439,1300366.46632439,1300369.66612506,3.2,1300371.00631559,1300371.00631559,1300374.20630746,3.2,1300375.59337649,1300376.22728897,0.633912482997403,66,Equals to,Index,66,=,Index
232,Temporal,3421,1,4,76,800,3.75,3.33333333333333,1,m,m,-800,400,-800,0,=,L,S,0.284041765533958,0.383802065080269,1.80769247346152,1.75765497917189,1.28797125426578,1300377.77676743,1300378.07647694,1300378.07647694,1300381.27642839,3.2,1300383.11623716,1300383.11623716,1300385.51623667,2.4,1300387.4100567,1300388.1316386,0.721581901190802,77,Shorter,Ring,77,S,Ring
232,Temporal,3421,1,4,77,1600,5,5,2,l,l,-1600,0,-1600,0,=,L,S,0.275524015494629,0.331357368161409,1.03333979698619,1.90683100837878,1.41365877807768,1300389.57680132,1300389.86687059,1300389.86687059,1300393.06632929,3.2,1300394.12666997,1300394.12666997,1300397.32650369,3.2,1300399.37681518,1300399.8916048,0.514789621112868,66,Equals to,Index,66,=,Index
232,Temporal,3421,1,4,78,1600,5,5,2,r,r,0,1600,0,1600,S,=,L,0.222829337140853,0.278196703525399,1.49672138784263,1.80926471964604,1.37033458065007,1300401.46020481,1300401.69670269,1300401.69670269,1300404.89648315,3.2,1300406.42704954,1300406.42704954,1300409.6268438,3.2,1300411.57686676,1300412.03535079,0.45848403009586,78,Equals to,Middle,78,=,Middle
232,Temporal,3421,1,4,79,800,7.5,3.33333333333333,1,m,m,-800,400,-800,0,S,=,L,0.443061251572834,0.470803561242231,1.6505188101248,1.69732867543353,1.14689387643495,1300413.56025787,1300414.01699252,1300414.01699252,1300415.61674591,1.6,1300417.29713012,1300417.29713012,1300419.69693202,2.4,1300421.54366553,1300421.99524892,0.451583389658481,77,Longer,Ring,78,=,Middle
232,Temporal,3421,1,4,80,400,5,5,2,m,m,-800,0,-800,-400,=,L,S,0.464350554427614,0.337507554372613,1.29872846185606,1.50210553419803,1.16096119059045,1300423.29367288,1300423.77723654,1300423.77723654,1300425.3770451,1.6,1300426.70723879,1300426.70723879,1300427.50694399,0.8,1300429.16031126,1300429.68335447,0.523043219000101,77,Shorter,Ring,77,S,Ring
232,Temporal,3421,1,4,81,1200,5,5,1,m,m,-800,0,-800,400,S,=,L,0.348966741132917,0.415269101691718,1.23925294587291,1.37349979095733,1.9822105740248,1300431.01035068,1300431.37721197,1300431.37721197,1300432.97702663,1.6,1300434.24730153,1300434.24730153,1300436.64702739,2.4,1300438.16043389,1300438.77139478,0.61096088658087,77,Longer,Ring,78,=,Middle
232,Temporal,3421,1,4,82,800,5,5,1,m,m,-800,400,-800,0,S,=,L,0.270015724280184,0.473620940375811,1.77336127068533,1.10522659101832,1.11124422229604,1300440.910416,1300441.19739819,1300441.19739819,1300443.59721708,2.4,1300445.39742667,1300445.39742667,1300446.99716402,1.6,1300448.24379328,1300449.03547334,0.791680060094222,66,Shorter,Index,66,S,Index
232,Temporal,3421,1,4,83,1600,7.5,20,2,m,m,-800,400,-800,800,L,S,=,0.470335745741452,0.366668864163585,1.35902726962109,1.8504456697896,1.66552330003184,1300450.29385702,1300450.77759648,1300450.77759648,1300452.37736334,1.6,1300453.76773117,1300453.76773117,1300454.56749861,0.8,1300456.56054503,1300457.06749292,0.506947892718017,78,Shorter,Middle,78,S,Middle
232,Temporal,3421,1,4,84,1200,20,7.5,1,l,l,-1600,0,-1600,-400,=,L,S,0.381109423480486,0.461816577189128,1.73276313118467,1.91944751372211,1.7147363065066,1300458.89386485,1300459.28760454,1300459.28760454,1300460.08745379,0.8,1300461.85787145,1300461.85787145,1300463.45733354,1.6,1300465.52721172,1300465.93936743,0.412155707133934,78,Longer,Middle,78,L,Middle
232,Temporal,3421,1,4,85,800,7.5,3.33333333333333,1,r,r,0,1200,0,800,S,=,L,0.368367247439955,0.393845804298541,1.68561795748391,1.4982856849218,1.34649936134627,1300467.81057755,1300468.19792045,1300468.19792045,1300469.79776334,1.6,1300471.50793532,1300471.50793532,1300473.90773881,2.4,1300475.56068258,1300476.02741736,0.466734778834507,77,Longer,Ring,77,L,Ring
232,Temporal,3421,1,4,86,1200,20,7.5,1,l,l,-1600,0,-1600,-400,=,L,S,0.471123067382772,0.259991243981237,1.05448360411838,1.73231828972677,1.90217692426051,1300477.51075593,1300477.99802574,1300477.99802574,1300478.79779061,0.8,1300479.87819073,1300479.87819073,1300481.47763134,1.6,1300483.36065573,1300483.77136334,0.410707606235519,78,Longer,Middle,78,L,Middle
232,Temporal,3421,1,4,87,1600,3.75,5,2,l,l,-1600,-400,-1600,0,=,L,S,0.4830753247117,0.280929891354211,1.37117880741945,1.8503573408706,1.76540107354559,1300485.82740555,1300486.32811191,1300486.32811191,1300489.5278866,3.2,1300490.92832441,1300490.92832441,1300494.12779658,3.2,1300496.12742262,1300496.68366694,0.556244317675009,66,Equals to,Index,66,=,Index
232,Temporal,3421,1,4,88,800,15,5,1,m,m,-800,400,-800,0,S,=,L,0.218402493648629,0.483288178767005,1.65523493961993,1.52554685540437,1.99026661162088,1300498.6107887,1300498.84821081,1300498.84821081,1300499.64804594,0.8,1300501.32822355,1300501.32822355,1300502.92826021,1.6,1300504.59412592,1300505.05926435,0.465138429310173,77,Longer,Ring,77,L,Ring
232,Temporal,3421,1,4,89,1600,5,5,2,l,l,-1600,-400,-1600,0,S,=,L,0.242468515110605,0.300422577858109,1.78270062163491,1.32753008170511,1.64442785571673,1300507.1942255,1300507.448346,1300507.448346,1300509.84812896,2.4,1300511.65835015,1300511.65835015,1300514.8582538,3.2,1300516.34426633,1300516.79553193,0.451265601674095,77,Longer,Ring,77,L,Ring
232,Temporal,3421,1,4,90,1200,5,5,1,m,m,-800,800,-800,400,S,=,L,0.49399592505873,0.234800010721646,1.40667019124668,1.6584104049381,1.36929816240846,1300518.59424975,1300519.10872783,1300519.10872783,1300522.30855994,3.2,1300523.74874097,1300523.74874097,1300526.14847389,2.4,1300527.94427731,1300528.43546615,0.491188847925514,66,Shorter,Index,66,S,Index
232,Temporal,3421,1,4,91,800,1.25,3.33333333333333,1,r,r,0,400,0,800,=,L,S,0.454239866829144,0.310795911381859,1.64542250519969,1.14013131355557,1.93818662503811,1300529.96101773,1300530.42837478,1300530.42837478,1300533.62837756,3.2,1300535.30893147,1300535.30893147,1300537.70850335,2.4,1300538.99440589,1300539.53952411,0.545118216890842,77,Shorter,Ring,77,S,Ring
232,Temporal,3421,1,4,92,800,5,5,1,l,l,-1600,-400,-1600,-800,=,L,S,0.297221525402441,0.220496810997593,1.92155575971733,1.33027982807991,1.56169520765837,1300541.6277755,1300541.93876203,1300541.93876203,1300544.33867332,2.4,1300546.29890961,1300546.29890961,1300547.89876918,1.6,1300549.3777285,1300549.90742452,0.529696014244109,77,Shorter,Ring,77,S,Ring
232,Temporal,3421,1,4,93,1200,20,7.5,1,r,r,0,1600,0,1200,=,L,S,0.331370212165957,0.415036768488666,1.36400127116539,1.83871709095025,1.71153655620535,1300551.61112133,1300551.95903224,1300551.95903224,1300552.75883464,0.8,1300554.15910435,1300554.15910435,1300555.75887442,1.6,1300557.74453534,1300558.24343815,0.498902816092595,78,Longer,Middle,78,L,Middle
232,Temporal,3421,1,4,94,800,3.75,3.33333333333333,1,r,r,0,1200,0,800,S,=,L,0.286058709471161,0.35385440411105,1.45422803488772,1.38695302884388,1.64021792844661,1300560.11121248,1300560.40904613,1300560.40904613,1300563.60886573,3.2,1300565.09901394,1300565.09901394,1300567.49899131,2.4,1300569.02787354,1300569.53131254,0.503438999177888,66,Shorter,Index,66,S,Index
232,Temporal,3421,1,4,95,1200,20,7.5,1,l,l,-1600,0,-1600,-400,=,L,S,0.45702014208126,0.305841940745557,1.64758658857589,1.28209457165263,1.73248147975856,1300571.31129358,1300571.77935704,1300571.77935704,1300572.57919762,0.8,1300574.2593531,1300574.2593531,1300575.85913215,1.6,1300577.29458749,1300578.11563988,0.821052385028452,78,Longer,Middle,78,L,Middle
232,Temporal,3421,1,4,96,400,5,5,2,m,m,-800,0,-800,-400,L,S,=,0.440525334593908,0.333029300351975,1.23270618634389,1.17008291450336,1.44527454846481,1300579.99441836,1300580.44944218,1300580.44944218,1300582.04922283,1.6,1300583.30944604,1300583.30944604,1300584.10928341,0.8,1300585.42797927,1300586.16362322,0.735643942840397,78,Shorter,Middle,78,S,Middle
