Subject,Task,SequenceOrder,ListNo,RunNo,TrialNo,Aud_Probe_Dist,Aud_Standard_Vel,Aud_Probe_Vel,Main_Control,Aud_Std_StartCode,Aud_Probe_StartCode,Aud_Std_StartPt,Aud_Std_EndPt,Aud_Probe_StartPt,Aud_Probe_EndPt,RespIndex,RespMiddle,RespRing,ISI_Cross_Std,ISI_Cross_Probe,ISI_Std_Probe,ISI_Probe_Response,ITI,TrialOnset,StdOnset,StdOnsetByStop,StdOffset,StdDur,ProbeOnset,ProbeOnsetByStop,ProbeOffset,ProbeDur,RespWinStart,RespTime,RT,CorrectKC,CorrectResponse,CorrectFinger,SubjRespKC,SubjResponse,SubjRespFinger
210,Spatial,4132,1,2,1,1200,6.66666666666667,7.5,1,m,m,-800,800,-800,400,L,S,=,0.444343219211419,0.202984185010836,1.25640697010673,1.8477605319711,1.72867026762338,3466.91844005759,3467.37389962505,3467.37389962505,3469.77535578174,2.4,3473.47530467164,3473.47530467164,3475.07544156407,1.6,3478.68679952983,3479.23768122079,0.55088169095734,78,Shorter,Middle,77,=,Ring
210,Spatial,4132,1,2,2,800,7.5,3.33333333333333,1,r,r,0,1200,0,800,=,L,S,0.303214937979458,0.203021744719712,1.17480723174936,1.57984279798387,1.71360943708008,3481.13523324839,3481.45535081573,3481.45535081573,3483.05536612438,1.6,3485.87555014898,3485.87555014898,3488.2753885035,2.4,3492.4184621929,3493.1175105672,0.69904837430613,77,Shorter,Ring,78,L,Middle
210,Spatial,4132,1,2,3,1200,3.33333333333333,7.5,1,m,m,-800,0,-800,400,L,S,=,0.445057313329975,0.252344520566885,1.43161364663647,1.62022935928176,1.40379214886045,3495.00205730029,3495.46561421946,3495.46561421946,3497.86546123563,2.4,3501.7354503412,3501.7354503412,3503.33573801036,1.6,3506.7352909285,3507.34946483887,0.61417391036548,66,Longer,Index,66,L,Index
210,Spatial,4132,1,2,4,1600,7.5,20,2,r,r,0,1200,0,1600,=,L,S,0.37802687922443,0.305008103434766,1.17420652006728,1.74640982704653,1.20666295848583,3508.91851929557,3509.31568473164,3509.31568473164,3510.91578088228,1.6,3513.72568802948,3513.72568802948,3514.52584757051,0.8,3517.23527585083,3518.02962313518,0.794347284350806,78,Longer,Middle,77,S,Ring
210,Spatial,4132,1,2,5,800,7.5,3.33333333333333,1,l,l,-1600,-400,-1600,-800,S,=,L,0.467813475119744,0.204781920321214,1.42258497939594,1.69482843695711,1.23427166642905,3519.41859821275,3519.90579178953,3519.90579178953,3521.50580517337,1.6,3524.57592664167,3524.57592664167,3526.97613103075,2.4,3531.23526462278,3532.18958889924,0.954324276463922,66,Shorter,Index,77,L,Ring
210,Spatial,4132,1,2,6,1200,10,7.5,1,m,m,-800,0,-800,400,S,=,L,0.335166279473914,0.396627655498251,1.46668258651996,1.76760642299929,1.37483797679279,3533.60197607334,3533.95608641367,3533.95608641367,3534.7561221253,0.8,3537.06611685132,3537.06611685132,3538.66602693706,1.6,3542.20198980364,3542.66957184543,0.4675820417865,77,Longer,Ring,77,L,Ring
210,Spatial,4132,1,2,7,800,5,5,1,l,l,-1600,-400,-1600,-800,S,=,L,0.269044959659616,0.421274773806017,1.52731043043694,1.12788078769268,1.9303818925269,3544.21830994048,3544.50620620097,3544.50620620097,3546.90625917172,2.4,3550.87636273929,3550.87636273929,3552.47637612313,1.6,3555.36858621477,3556.06156887352,0.692982658752044,66,Shorter,Index,66,S,Index
210,Spatial,4132,1,2,8,1200,5,5,1,l,l,-1600,0,-1600,-400,L,S,=,0.443972394577484,0.371313040779015,1.52158966071217,1.30292356579626,1.0834427302233,3558.15202175548,3558.60625971066,3558.60625971066,3561.80637568684,3.2,3566.57645628502,3566.57645628502,3568.97666773173,2.4,3572.85187373765,3573.50960928939,0.657735551740188,78,Shorter,Middle,66,L,Index
210,Spatial,4132,1,2,9,1200,10,5,1,l,l,-1600,0,-1600,-400,S,=,L,0.212908207801225,0.246434308578487,1.16559287579664,1.75957293179468,1.02554873587562,3574.75186995219,3574.9764406299,3574.9764406299,3576.57657848474,1.6,3579.38676986211,3579.38676986211,3581.78667750976,2.4,3586.11859936764,3586.78138626045,0.662786892818986,66,Shorter,Index,78,=,Middle
210,Spatial,4132,1,2,10,400,1.66666666666667,1.25,2,r,r,0,400,0,400,=,L,S,0.203802681171086,0.421463397040216,1.81488343067792,1.25132285642275,1.84739818927047,3587.9851873096,3588.20686916943,3588.20686916943,3590.60666870696,2.4,3594.86694753483,3594.86694753483,3598.06676484477,3.2,3602.68524941678,3603.57354407428,0.8882946574995,66,Equals to,Index,66,=,Index
210,Spatial,4132,1,2,11,1200,10,7.5,1,m,m,-800,0,-800,400,L,S,=,0.322706030525558,0.259385637779722,1.54384753897718,1.41153941271015,1.12667962964715,3605.58526487942,3605.9269236287,3605.9269236287,3606.72684353097,0.8,3609.10720575441,3609.10720575441,3610.70702280771,1.6,3613.88524704285,3614.47745021802,0.592203175165196,66,Longer,Index,66,L,Index
210,Spatial,4132,1,2,12,1600,3.75,5,2,l,l,-1600,-400,-1600,0,S,=,L,0.250431239747073,0.479433870282395,1.00650149370782,1.25950746302372,1.55532569156962,3615.76839989324,3616.03722418125,3616.03722418125,3619.23712393719,3.2,3623.48716149663,3623.48716149663,3626.68742760792,3.2,3631.31859121928,3631.89344576786,0.574854548581243,77,Longer,Ring,78,=,Middle
210,Spatial,4132,1,2,13,1200,2.5,5,1,r,r,0,800,0,1200,S,=,L,0.244634890458258,0.373071536191272,1.29278625583318,1.55120034026203,1.78093827538341,3633.76840887568,3634.02718982982,3634.02718982982,3637.22722977603,3.2,3641.75762446458,3641.75762446458,3644.15737748589,2.4,3648.28531607934,3648.84534831348,0.560032234138816,77,Longer,Ring,78,=,Middle
210,Spatial,4132,1,2,14,1200,6.66666666666667,7.5,1,l,l,-1600,0,-1600,-400,=,L,S,0.314393922389193,0.250930297540974,1.02612749072786,1.19528810122865,1.42513136256115,3650.78525961827,3651.11761833086,3651.11761833086,3653.5175872516,2.4,3656.97779922443,3656.97779922443,3658.57756270387,1.6,3661.53523363335,3662.56538320386,1.03014957051073,77,Shorter,Ring,66,=,Index
210,Spatial,4132,1,2,15,400,3.33333333333333,1.25,2,l,l,-1600,-800,-1600,-1200,=,L,S,0.385416192439907,0.388250167726248,1.60382036751981,1.53449534012345,1.54914981679283,3664.16855939576,3664.56782544033,3664.56782544033,3666.96794289219,2.4,3671.00770145695,3671.00770145695,3674.20770451098,3.2,3679.11897855506,3679.65338067081,0.534402115750254,77,Shorter,Ring,78,L,Middle
210,Spatial,4132,1,2,16,1600,5,5,2,l,l,-1600,0,-1600,0,S,=,L,0.258673461987156,0.216630212051567,1.16256097176761,1.9055025514429,1.21473668505787,3681.3850500707,3681.65792447818,3681.65792447818,3684.85781653488,3.2,3689.26817883531,3689.26817883531,3692.46808212006,3.2,3697.75191903482,3698.22938529292,0.477466258093955,78,Equals to,Middle,78,=,Middle
210,Spatial,4132,1,2,17,1600,15,20,2,r,r,0,1200,0,1600,=,L,S,0.286055465348692,0.214664101774878,1.15787080542976,1.60326427555975,1.94308298013602,3699.60189587295,3699.90814968087,3699.90814968087,3700.70832943239,0.8,3702.7082158943,3702.7082158943,3703.50808093951,0.8,3706.08563861321,3708.24537275856,2.15973414534619,78,Longer,Middle,66,=,Index
210,Spatial,4132,1,2,18,1200,20,7.5,1,l,l,-1600,0,-1600,-400,S,=,L,0.219001309874332,0.337342922690433,1.97804442915471,1.37798676784001,1.70846720906188,3710.3518852865,3710.58854825753,3710.58854825753,3711.38832540312,0.8,3714.2083804655,3714.2083804655,3715.80846570888,1.6,3718.95187944791,3719.73330035493,0.781420907021129,66,Shorter,Index,77,L,Ring
210,Spatial,4132,1,2,19,800,7.5,3.33333333333333,1,m,m,-800,400,-800,0,=,L,S,0.478181538002121,0.242892596982993,1.36208854074321,1.26376390252069,1.24646232509168,3721.6185720995,3722.10861407318,3722.10861407318,3723.70832782838,1.6,3726.70869805902,3726.70869805902,3729.10865414771,2.4,3732.93522022384,3733.50130085025,0.566080626409985,77,Shorter,Ring,77,S,Ring
210,Spatial,4132,1,2,20,1200,5,5,1,l,l,-1600,-800,-1600,-400,S,=,L,0.401389088260905,0.471065120104689,1.69206690488998,1.37784487106454,1.82795611557701,3734.91845930568,3735.33866278368,3735.33866278368,3736.93864440817,1.6,3740.27872775241,3740.27872775241,3742.67875890866,2.4,3746.61854194416,3747.17311189044,0.554569946285028,77,Longer,Ring,77,L,Ring
210,Spatial,4132,1,2,21,1200,10,7.5,1,r,r,0,800,0,1200,=,L,S,0.263227676261257,0.271326347876397,1.43457481077186,1.32359257238382,1.32207484929924,3749.18527604331,3749.45891877048,3749.45891877048,3750.25906002582,0.8,3752.53901072504,3752.53901072504,3754.13881751268,1.6,3757.23551548958,3758.02915476493,0.793639275347687,78,Longer,Middle,78,L,Middle
210,Spatial,4132,1,2,22,400,5,5,2,r,r,0,400,0,400,S,=,L,0.377451319370008,0.319187809429854,1.0620542859415,1.84633700801636,1.34093367295595,3759.51839796843,3759.90898408568,3759.90898408568,3760.70910673452,0.8,3762.6091809295,3762.6091809295,3763.40902095219,0.8,3766.21854637122,3766.82919274783,0.61064637661093,78,Equals to,Middle,78,=,Middle
210,Spatial,4132,1,2,23,800,1.25,3.33333333333333,1,r,r,0,400,0,800,=,L,S,0.284677049516499,0.483330753795263,1.58443519072071,1.7174283157772,1.28792971072679,3768.351863472,3768.64906137318,3768.64906137318,3771.84918921902,3.2,3776.66921733406,3776.66921733406,3779.06930110176,2.4,3783.3689455125,3784.00528007258,0.636334560078467,78,Longer,Middle,78,L,Middle
210,Spatial,4132,1,2,24,800,5,5,1,l,l,-1600,-1200,-1600,-800,L,S,=,0.42360567418113,0.470946307068007,1.06953548678871,1.64587472384578,1.52561368496405,3785.4684164466,3785.90950089696,3785.90950089696,3786.70938390706,0.8,3788.61955565137,3788.61955565137,3790.21951193253,1.6,3793.63514053674,3795.0611065985,1.42596606176312,66,Longer,Index,66,L,Index
210,Spatial,4132,1,2,25,800,1.25,3.33333333333333,1,r,r,0,400,0,800,=,L,S,0.350068313849627,0.260667609854183,1.02369546892612,1.14845779215266,1.76522112007645,3797.26838513637,3797.62943313084,3797.62943313084,3800.82954942782,3.2,3805.08963802037,3805.08963802037,3807.48936698157,2.4,3811.20188875116,3811.92514256421,0.723253813046995,78,Longer,Middle,77,S,Ring
210,Spatial,4132,1,2,26,1200,5,5,1,m,m,-800,0,-800,400,=,L,S,0.2461804263188,0.200832275270442,1.40274109924685,1.81570192646979,1.2157399980765,3813.85178744203,3814.10987450244,3814.10987450244,3815.7098298212,1.6,3818.74969360886,3818.74969360886,3821.14989126111,2.4,3825.51853013866,3826.74114427344,1.22261413477281,78,Longer,Middle,78,L,Middle
210,Spatial,4132,1,2,27,1200,5,5,1,m,m,-800,0,-800,400,L,S,=,0.478346578627487,0.263677632837512,1.52191218813492,1.62428970755958,1.96357605927781,3828.11857306191,3828.61008366504,3828.61008366504,3830.20993151529,1.6,3833.36998039261,3833.36998039261,3835.76986269694,2.4,3839.96902661113,3840.54130287772,0.572276266588233,66,Longer,Index,66,L,Index
210,Spatial,4132,1,2,28,800,2.5,3.33333333333333,1,m,m,-800,-400,-800,0,=,L,S,0.451126424213239,0.234736689205716,1.73884076067802,1.21521272304617,1.93774920560663,3842.66843011274,3843.13028229253,3843.13028229253,3844.73020136071,1.6,3848.11022417612,3848.11022417612,3850.50991752834,2.4,3854.28520732762,3855.06095870899,0.77575138137172,78,Longer,Middle,77,S,Ring
210,Spatial,4132,1,2,29,800,3.75,3.33333333333333,1,m,m,-800,400,-800,0,L,S,=,0.239904012829609,0.474006711003937,1.46175777303081,1.46943830097869,1.18400682709239,3857.16851993717,3857.42035393393,3857.42035393393,3860.62024406581,3.2,3865.33043294093,3865.33043294093,3867.73014233323,2.4,3871.76888109555,3872.82122596234,1.05234486679046,78,Shorter,Middle,78,S,Middle
210,Spatial,4132,1,2,30,800,2.5,3.33333333333333,1,l,l,-1600,-1200,-1600,-800,=,L,S,0.237219707504338,0.42980592409776,1.2822147972449,1.96147991034294,1.36524021315561,3874.16843620797,3874.42050150263,3874.42050150263,3876.02024348837,1.6,3878.95051377009,3878.95051377009,3881.35058887614,2.4,3885.86852654569,3886.49295166932,0.624425123636684,78,Longer,Middle,66,=,Index
210,Spatial,4132,1,2,31,800,3.75,3.33333333333333,1,r,r,0,1200,0,800,=,L,S,0.242261286869731,0.37002203354548,1.95749437385204,1.75716905843769,1.21423659137064,3888.01854617874,3888.28058904296,3888.28058904296,3891.48064567085,3.2,3896.67096281525,3896.67096281525,3899.07107288868,2.4,3903.40174297894,3904.33306386004,0.931320881100874,77,Shorter,Ring,78,L,Middle
210,Spatial,4132,1,2,32,800,2.5,3.33333333333333,1,r,r,0,400,0,800,L,S,=,0.348690167398198,0.466546555675833,1.48916956228232,1.82373829940531,1.73179474455438,3905.71858198019,3906.08090227358,3906.08090227358,3907.68071259005,1.6,3910.81117201635,3910.81117201635,3913.21092343365,2.4,3917.60179417886,3918.40504980123,0.803255622367487,66,Longer,Index,66,L,Index
210,Spatial,4132,1,2,33,400,10,5,2,m,m,-800,0,-800,-400,=,L,S,0.224574936418084,0.36231859368773,1.55077436467959,1.64558326138088,1.50045070066925,3920.30159900321,3920.54104973964,3920.54104973964,3921.34085832377,0.8,3923.73134408147,3923.73134408147,3924.53097622476,0.8,3927.13509177491,3927.79712125528,0.662029480378351,77,Shorter,Ring,77,S,Ring
210,Spatial,4132,1,2,34,800,1.25,3.33333333333333,1,r,r,0,400,0,800,S,=,L,0.466118115675349,0.325062077262727,1.93989858523769,1.2405504506518,1.19806524163286,3929.46853546397,3929.95111623538,3929.95111623538,3933.1513448129,3.2,3938.32130132504,3938.32130132504,3940.7211903662,2.4,3944.53516273621,3945.25296196064,0.717799224430109,77,Longer,Ring,66,S,Index
210,Spatial,4132,1,2,35,1200,10,5,1,m,m,-800,800,-800,400,=,L,S,0.43704569871903,0.214023534305415,1.36275667201215,1.43511454348378,1.61407502745517,3946.6185284705,3947.07160352009,3947.07160352009,3948.67142089419,1.6,3951.68159995278,3951.68159995278,3954.08169494853,2.4,3958.08552408706,3958.86095851651,0.775434429448069,77,Shorter,Ring,78,L,Middle
210,Spatial,4132,1,2,36,400,5,5,2,r,r,0,400,0,400,S,=,L,0.351552481190902,0.466369742397216,1.23317845094668,1.01635070487853,1.99247238114272,3960.66853950607,3961.03176606382,3961.03176606382,3961.83172221666,0.8,3963.90143273818,3963.90143273818,3964.70180721624,0.8,3966.68505051983,3967.28481819535,0.599767675523253,78,Equals to,Middle,78,=,Middle
210,Spatial,4132,1,2,37,1200,10,5,1,l,l,-1600,0,-1600,-400,S,=,L,0.393009255681305,0.268037669858038,1.35805350822763,1.82577715979698,1.60366517535208,3969.45182523245,3969.86180476531,3969.86180476531,3971.4618483045,1.6,3974.46191601929,3974.46191601929,3976.86194942115,2.4,3981.25220775621,3982.47693629395,1.22472853773525,66,Shorter,Index,77,L,Ring
210,Spatial,4132,1,2,38,1200,3.33333333333333,7.5,1,r,r,0,800,0,1200,L,S,=,0.346839534130852,0.368245807317766,1.96153132611574,1.4758796407366,1.4357968372765,3984.25177756134,3984.61201104071,3984.61201104071,3987.01202519447,2.4,3991.41218151465,3991.41218151465,3993.01222441223,1.6,3996.25184460887,3997.42102956764,1.16918495877053,66,Longer,Index,78,S,Middle
210,Spatial,4132,1,2,39,800,3.75,3.33333333333333,1,r,r,0,1200,0,800,L,S,=,0.290386558710608,0.248516883325712,1.80993486218026,1.50715092457425,1.32850646543723,3999.03521791407,3999.34212904435,3999.34212904435,4002.54218695544,3.2,4007.59219962068,4007.59219962068,4009.99227504754,2.4,4014.06848310916,4014.67690568948,0.60842258032244,78,Shorter,Middle,78,S,Middle
210,Spatial,4132,1,2,40,400,2.5,1.25,2,m,m,-800,0,-800,-400,=,L,S,0.316426478809896,0.487770891503936,1.65540779203734,1.47010612951726,1.83185090843203,4016.16853052363,4016.50246629659,4016.50246629659,4019.70243694967,3.2,4024.60260898912,4024.60260898912,4027.80259536147,3.2,4032.65182029211,4033.60484147271,0.953021180600899,77,Shorter,Ring,78,L,Middle
210,Spatial,4132,1,2,41,800,15,5,1,m,m,-800,400,-800,0,S,=,L,0.242967628479342,0.294687997858087,1.52850576983735,1.04805481034891,1.68811159257121,4035.60188817372,4035.86258431306,4035.86258431306,4036.66262547832,0.8,4039.03278877913,4039.03278877913,4040.63264946144,1.6,4043.43553621336,4044.10084364389,0.66530743053363,66,Shorter,Index,77,L,Ring
210,Spatial,4132,1,2,42,800,15,5,1,r,r,0,1200,0,800,=,L,S,0.301574881141585,0.393967336541639,1.38407351134404,1.37072317627701,1.44610827910802,4045.95173380401,4046.27298636722,4046.27298636722,4047.07288317178,0.8,4049.30289405337,4049.30289405337,4050.90270404903,1.6,4054.05177031123,4054.57301892216,0.521248610929433,77,Shorter,Ring,78,L,Middle
210,Spatial,4132,1,2,43,800,5,5,1,l,l,-1600,-1200,-1600,-800,=,L,S,0.328493153085383,0.470449851984936,1.45489852333925,1.75687402890002,1.17686119118482,4056.18517627403,4056.53283561616,4056.53283561616,4057.33279337301,0.8,4059.62288525057,4059.62288525057,4061.22298140121,1.6,4064.7523517961,NaN,NaN,78,Longer,Middle,999,Missed,Missed
210,Spatial,4132,1,2,44,1600,3.75,5,2,l,l,-1600,-400,-1600,0,S,=,L,0.230822127529161,0.412021567698694,1.0649876477551,1.29479828258013,1.60064738729064,4069.06857325439,4069.31328481531,4069.31328481531,4072.51306330826,3.2,4076.8132007653,4076.8132007653,4080.01313741342,3.2,4084.66847438336,4085.30888408542,0.640409702065426,77,Longer,Ring,66,S,Index
210,Spatial,4132,1,2,45,1200,5,5,1,m,m,-800,800,-800,400,L,S,=,0.2928664456009,0.418199976098086,1.97234373444146,1.51093791315646,1.01163115983802,4087.08517152617,4087.39328341661,4087.39328341661,4090.5934019592,3.2,4095.80320523086,4095.80320523086,4098.20343079284,2.4,4102.2852243301,4102.9487554825,0.66353115239599,78,Shorter,Middle,77,=,Ring
210,Spatial,4132,1,2,46,800,1.66666666666667,5,1,r,r,0,400,0,800,L,S,=,0.323127424230788,0.491052248237238,1.5528646569087,1.27174105774741,1.02809015726227,4104.13518127854,4104.47353256392,4104.47353256392,4106.87351752475,2.4,4110.87363239736,4110.87363239736,4112.47348890925,1.6,4115.51846052473,4116.06075660402,0.5422960792921,66,Longer,Index,77,=,Ring
210,Spatial,4132,1,2,47,1200,5,5,1,r,r,0,1600,0,1200,L,S,=,0.490577139743108,0.383383995113091,1.82423031614558,1.22953817681396,1.36665646370069,4117.30181073222,4117.80350325549,4117.80350325549,4121.00373215381,3.2,4126.07391104558,4126.07391104558,4128.47371026231,2.4,4132.26875534135,4132.77273360127,0.503978259921496,78,Shorter,Middle,77,=,Ring
210,Spatial,4132,1,2,48,400,1.25,1.25,2,r,r,0,400,0,400,S,=,L,0.379405523019591,0.309123924391874,1.06890789033114,1.4186547077178,1.65905167706405,4134.31842215686,4134.71398133962,4134.71398133962,4137.91411495987,3.2,4142.22421651281,4142.22421651281,4145.42375023419,3.2,4150.21846552923,4151.1646135368,0.946148007565171,78,Equals to,Middle,77,L,Ring
210,Spatial,4132,1,2,49,800,15,5,1,m,m,-800,400,-800,0,=,L,S,0.233689469862298,0.467795140085604,1.425539595931,1.52964066165626,1.88913515388522,4154.55169267726,4154.80428055763,4154.80428055763,4155.60402722707,0.8,4157.87425731877,4157.87425731877,4159.47397139477,1.6,4162.76840085564,4163.43659678326,0.668195927617489,77,Shorter,Ring,77,S,Ring
210,Spatial,4132,1,2,50,1600,15,20,2,l,l,-1600,-400,-1600,0,L,S,=,0.489100437075616,0.481426491190382,1.06587281395676,1.98357902071436,1.24330685628008,4165.4852485827,4165.99442508514,4165.99442508514,4166.79431002004,0.8,4168.70434285729,4168.70434285729,4169.50438273934,0.8,4172.46849793019,4173.21261827953,0.744120349339937,66,Longer,Index,77,=,Ring
210,Spatial,4132,1,2,51,1600,5,5,2,l,l,-1600,-400,-1600,0,=,L,S,0.238359050809063,0.384405477598168,1.548296431334,1.16661202612075,1.99323558620406,4174.61835940808,4174.87452935847,4174.87452935847,4177.274409738,2.4,4181.26451335689,4181.26451335689,4184.46463991952,3.2,4189.00175446363,4189.52466867617,0.522914212534488,78,Longer,Middle,78,L,Middle
210,Spatial,4132,1,2,52,1200,6.66666666666667,7.5,1,m,m,-800,800,-800,400,S,=,L,0.338366131504925,0.314681686686302,1.11588554429522,1.01440614342563,1.49935769836511,4191.68509318643,4192.03457564372,4192.03457564372,4194.43480730093,2.4,4197.9847211593,4197.9847211593,4199.58459242806,1.6,4202.38501061212,4203.02045911833,0.635448506219291,66,Shorter,Index,78,=,Middle
210,Spatial,4132,1,2,53,400,1.66666666666667,1.25,2,m,m,-800,-400,-800,-400,S,=,L,0.291441997229039,0.204283801609515,1.78241767576788,1.09309221555205,1.47626944090508,4204.68509831926,4204.99495537009,4204.99495537009,4207.39484826087,2.4,4211.6148802897,4211.6148802897,4214.81486120842,3.2,4219.26878517589,4219.8447272417,0.575942065807794,78,Equals to,Middle,78,=,Middle
210,Spatial,4132,1,2,54,1600,10,20,2,r,r,0,1600,0,1600,=,L,S,0.427532083905013,0.308493291661747,1.21931038208428,1.2939536541935,1.94894448236626,4221.48505995139,4221.9251755811,4221.9251755811,4223.52525697487,1.6,4226.38505710268,4226.38505710268,4227.18514991698,0.8,4229.45179571871,4231.15648121771,1.70468549900033,66,Equals to,Index,77,S,Ring
210,Spatial,4132,1,2,55,400,5,5,2,m,m,-800,0,-800,-400,S,=,L,0.44213213008704,0.48381851551062,1.93782213474623,1.78386057833125,1.24504632813645,4233.26849388809,4233.72516704778,4233.72516704778,4235.32497896825,1.6,4238.90520568512,4238.90520568512,4239.70503544215,0.8,4242.46868207027,4243.40455255884,0.935870488568071,66,Shorter,Index,66,S,Index
210,Spatial,4132,1,2,56,400,2.5,1.25,2,l,l,-1600,-800,-1600,-1200,S,=,L,0.406006940865578,0.450544384013674,1.68457052923125,1.44369295921031,1.38925688106366,4244.81847316431,4245.23551963434,4245.23551963434,4248.4354870794,3.2,4253.36542950194,4253.36542950194,4256.5655018491,3.2,4261.36848419988,4262.02052841147,0.652044211586144,66,Shorter,Index,78,=,Middle
210,Spatial,4132,1,2,57,800,1.66666666666667,5,1,m,m,-800,-400,-800,0,L,S,=,0.486437544993333,0.457746225561648,1.63171679405824,1.61689587628798,1.39633344935759,4263.60173675539,4264.105580253,4264.105580253,4266.50574229627,2.4,4270.58585897821,4270.58585897821,4272.18545788646,1.6,4275.58496043875,4276.59649485819,1.01153441943916,66,Longer,Index,78,S,Middle
210,Spatial,4132,1,2,58,1600,6.66666666666667,5,2,r,r,0,1600,0,1600,L,S,=,0.499993934999152,0.431867080840271,1.31109394285792,1.27772806783097,1.06249046527614,4278.15185429707,4278.66588228123,4278.66588228123,4281.06599107145,2.4,4284.81569948851,4284.81569948851,4288.01620684257,3.2,4292.65174650775,4293.30844137929,0.656694871539003,77,Equals to,Ring,77,=,Ring
210,Spatial,4132,1,2,59,1200,6.66666666666667,7.5,1,l,l,-1600,0,-1600,-400,L,S,=,0.219609804544687,0.288953923965661,1.41593675281963,1.96964352684673,1.33171419754304,4294.53510274632,4294.7660544875,4294.7660544875,4297.16614787925,2.4,4301.01608047243,4301.01608047243,4302.61623532975,1.6,4306.35205851933,4307.37240664034,1.02034812100192,78,Shorter,Middle,78,S,Middle
210,Spatial,4132,1,2,60,1200,3.33333333333333,7.5,1,l,l,-1600,-800,-1600,-400,=,L,S,0.2827471490123,0.499491245725435,1.16713442374388,1.45149364542023,1.64503580897667,4308.86845853576,4309.16619474193,4309.16619474193,4311.5661258081,2.4,4315.16619217552,4315.16619217552,4316.76643557407,1.6,4319.98510903403,4320.45255120634,0.467442172313895,78,Longer,Middle,77,S,Ring
210,Spatial,4132,1,2,61,400,5,5,2,m,m,-800,0,-800,-400,L,S,=,0.322727846172766,0.313733873172462,1.86019277961714,1.75639440980783,1.51894460545964,4322.2683302793,4322.60655709369,4322.60655709369,4324.20637414699,1.6,4327.70658044804,4327.70658044804,4328.50633481672,0.8,4331.23548212622,4331.87646830866,0.640986182435881,78,Shorter,Middle,78,S,Middle
210,Spatial,4132,1,2,62,1600,10,20,2,m,m,-800,800,-800,800,L,S,=,0.303053791248732,0.241440917746008,1.31282188520667,1.2887524240809,1.13388952880434,4333.55172443661,4333.86630464854,4333.86630464854,4335.46656344556,1.6,4338.41652452592,4338.41652452592,4339.21670491904,0.8,4341.4684379403,4342.38825776532,0.919819825022387,77,Equals to,Ring,77,=,Ring
210,Spatial,4132,1,2,63,1200,10,5,1,l,l,-1600,0,-1600,-400,S,=,L,0.386190341386063,0.276255356830086,1.54564176148432,1.00174592037573,1.58172052122975,4343.68503640456,4344.08684544295,4344.08684544295,4345.68669618041,1.6,4348.87662707976,4348.87662707976,4351.27675960929,2.4,4354.85182850463,4355.38036412258,0.528535617953821,66,Shorter,Index,77,L,Ring
210,Spatial,4132,1,2,64,1200,20,7.5,1,l,l,-1600,0,-1600,-400,L,S,=,0.463957563285355,0.28989244218609,1.27349517353362,1.82818198966218,1.23247685882817,4357.13509787013,4357.61676628196,4357.61676628196,4358.41700153215,0.8,4360.52686549946,4360.52686549946,4362.1266710039,1.6,4365.71845526358,4366.60461755323,0.886162289650201,78,Shorter,Middle,66,L,Index
210,Spatial,4132,1,2,65,1600,20,20,2,r,r,0,1600,0,1600,S,=,L,0.379447371530494,0.334997849322893,1.48896060067155,1.55956747381689,1.33878246518637,4368.01844833427,4368.41721745725,4368.41721745725,4369.2169253097,0.8,4371.53676479344,4371.53676479344,4372.33698464516,0.8,4374.88537183465,4375.42029685692,0.53492502226436,78,Equals to,Middle,78,=,Middle
210,Spatial,4132,1,2,66,400,3.33333333333333,1.25,2,r,r,0,800,0,400,L,S,=,0.227183376801538,0.441173050273003,1.3949750943176,1.01706320490869,1.64332582303998,4376.93489685589,4377.17711835524,4377.17711835524,4379.57709625843,2.4,4383.40731270964,4383.40731270964,4386.60704821519,3.2,4391.00177178692,4391.71647431406,0.714702527146073,78,Shorter,Middle,66,L,Index
210,Spatial,4132,1,2,67,400,10,5,2,r,r,0,800,0,400,L,S,=,0.353832553081106,0.264240915610241,1.24389140001118,1.95019567493097,1.89130918937887,4393.53506040051,4393.90754112034,4393.90754112034,4394.70717679245,0.8,4396.79714368573,4396.79714368573,4397.5972512569,0.8,4400.53546396885,4401.12417746485,0.588713495993034,78,Shorter,Middle,77,=,Ring
210,Spatial,4132,1,2,68,1200,10,7.5,1,m,m,-800,0,-800,400,=,L,S,0.347858660942232,0.26892859663992,1.16613117970831,1.14630382655093,1.19688759522694,4403.18492348242,4403.54733680826,4403.54733680826,4404.34726280576,0.8,4406.34753198391,4406.34753198391,4407.94744078645,1.6,4410.85171173287,4411.90033433937,1.04862260649952,78,Longer,Middle,78,L,Middle
210,Spatial,4132,1,2,69,1200,5,5,1,m,m,-800,0,-800,400,S,=,L,0.205579379701863,0.414592240820612,1.45767597397685,1.44381220971746,1.79663007633726,4413.26848201843,4413.48760291955,4413.48760291955,4415.08751845892,1.6,4418.18757873111,4418.18757873111,4420.58771286466,2.4,4424.61872608425,4426.84428421477,2.22555813052259,77,Longer,Ring,77,L,Ring
210,Spatial,4132,1,2,70,1200,3.33333333333333,7.5,1,l,l,-1600,-800,-1600,-400,=,L,S,0.23654869675636,0.465631660330833,1.45717524392339,1.37600803017774,1.27201278327607,4428.80172924863,4429.05780873299,4429.05780873299,4431.45793067607,2.4,4435.35776844031,4435.35776844031,4436.9575415438,1.6,4440.10170595844,4440.80416926516,0.702463306720347,78,Longer,Middle,77,S,Ring
210,Spatial,4132,1,2,71,400,2.5,5,2,l,l,-1600,-1200,-1600,-1200,S,=,L,0.250156976931707,0.460847693181239,1.42159998465169,1.02579160590874,1.23418563925978,4442.251706985,4442.51768383853,4442.51768383853,4444.11810046991,1.6,4447.16819750596,4447.16819750596,4447.96811869144,0.8,4449.96836287274,4450.64439886924,0.676035996500104,78,Equals to,Middle,66,S,Index
210,Spatial,4132,1,2,72,800,2.5,3.33333333333333,1,r,r,0,400,0,800,=,L,S,0.478035321371274,0.498373173515744,1.53986295060641,1.59765354424601,1.66406698022587,4452.03506232532,4452.5280383499,4452.5280383499,4454.1281883952,1.6,4457.30813819617,4457.30813819617,4459.70798809955,2.4,4463.86822755865,4464.60408534348,0.735857784827203,78,Longer,Middle,78,L,Middle
210,Spatial,4132,1,2,73,1200,2.5,5,1,m,m,-800,0,-800,400,L,S,=,0.354484420985443,0.266698971782455,1.80646565020818,1.79229551354673,1.13871748373398,4466.90167561061,4467.26838767711,4467.26838767711,4470.4681318443,3.2,4475.5283925148,4475.5283925148,4477.92855359567,2.4,4482.28508381903,4482.91621016607,0.63112634704521,66,Longer,Index,66,L,Index
210,Spatial,4132,1,2,74,800,1.25,3.33333333333333,1,l,l,-1600,-1200,-1600,-800,S,=,L,0.36355471183723,0.214258760334067,1.81762459123417,1.01451687742992,1.65391364509811,4484.2350824075,4484.61853614407,4484.61853614407,4487.81865885707,3.2,4492.88855448108,4492.88855448108,4495.28848105603,2.4,4498.86843319244,4499.51616711451,0.647733922069165,77,Longer,Ring,78,=,Middle
210,Spatial,4132,1,2,75,800,3.75,3.33333333333333,1,m,m,-800,400,-800,0,S,=,L,0.323337306391099,0.269205498973307,1.47286403445802,1.58812910984217,1.65036155502249,4501.35166425424,4501.68859759681,4501.68859759681,4504.88862888138,3.2,4509.6087651707,4509.6087651707,4512.00878991092,2.4,4516.16872011734,4517.34002461189,1.17130449455817,66,Shorter,Index,66,S,Index
210,Spatial,4132,1,2,76,1200,2.5,5,1,r,r,0,800,0,1200,S,=,L,0.253678440319896,0.448487269274572,1.79230047345703,1.74801941434249,1.93923085740254,4519.16846508011,4519.4388234411,4519.4388234411,4522.63906741709,3.2,4527.67899857307,4527.67899857307,4530.07916542837,2.4,4534.38503050181,4535.28413713368,0.899106631865834,77,Longer,Ring,66,S,Index
210,Spatial,4132,1,2,77,800,5,5,1,m,m,-800,400,-800,0,L,S,=,0.408420321129239,0.238037659757662,1.48164698054793,1.44213082149439,1.54685672467306,4537.4017144276,4537.82940220558,4537.82940220558,4540.22921425437,2.4,4544.14948900164,4544.14948900164,4545.74953735285,1.6,4548.95155672156,4549.88408830768,0.932531586119694,78,Shorter,Middle,66,L,Index
210,Spatial,4132,1,2,78,1200,5,5,1,r,r,0,1600,0,1200,S,=,L,0.231137156130736,0.278001820648237,1.94479016232163,1.2493514641888,1.61104758931425,4551.60180925654,4551.84942792103,4551.84942792103,4555.04957693976,3.2,4560.22954887604,4560.22954887604,4562.62956655862,2.4,4566.43502613891,4567.57994181943,1.14491568052199,66,Shorter,Index,78,=,Middle
210,Spatial,4132,1,2,79,1200,20,7.5,1,r,r,0,1600,0,1200,L,S,=,0.234179868895321,0.46244661032652,1.70215055031149,1.3710909865967,1.37085447038552,4569.35169344718,4569.59981609089,4569.59981609089,4570.39966894564,0.8,4572.9396976253,4572.9396976253,4574.5396404328,1.6,4577.6853780582,4579.2199155522,1.53453749400069,78,Shorter,Middle,78,S,Middle
210,Spatial,4132,1,2,80,1600,20,20,2,r,r,0,1600,0,1600,L,S,=,0.372630770059461,0.425342534954145,1.82022018182054,1.29751125586129,1.17118468583782,4580.75169704016,4581.13964648953,4581.13964648953,4581.93988943896,0.8,4584.59978625635,4584.59978625635,4585.39990280997,0.8,4587.65178757035,4588.22816881347,0.576381243118703,77,Equals to,Ring,77,=,Ring
210,Spatial,4132,1,2,81,1600,5,5,2,l,l,-1600,-400,-1600,0,L,S,=,0.285973529907362,0.340719484419151,1.30803809504919,1.11997843125006,1.51015485951417,4589.56837499904,4589.86990724986,4589.86990724986,4592.26976068205,2.4,4596.03007961011,4596.03007961011,4599.22995434352,3.2,4603.71867822066,4604.31621568386,0.59753746320348,66,Longer,Index,66,L,Index
210,Spatial,4132,1,2,82,800,15,5,1,r,r,0,1200,0,800,=,L,S,0.247807692677586,0.379347544569727,1.91578699254484,1.14145745420469,1.90182222198944,4606.00170730581,4606.26005357386,4606.26005357386,4607.06000298987,0.8,4609.82010345208,4609.82010345208,4611.42032439452,1.6,4614.33504769677,4615.32388476552,0.988837068745852,77,Shorter,Ring,78,L,Middle
210,Spatial,4132,1,2,83,1200,2.5,5,1,m,m,-800,0,-800,400,L,S,=,0.233651767254726,0.424808009882767,1.65766266990266,1.79094578570382,1.92162193302747,4617.40175356539,4617.65037120588,4617.65037120588,4620.85046729236,3.2,4625.74025370269,4625.74025370269,4628.14018861847,2.4,4632.51830621919,4633.30793130484,0.789625085653825,66,Longer,Index,66,L,Index
210,Spatial,4132,1,2,84,800,5,5,1,m,m,-800,-400,-800,0,S,=,L,0.263905312721627,0.366879077961868,1.90725390517133,1.90933349570829,1.73330187853223,4635.40167432741,4635.68055542296,4635.68055542296,4636.4806354052,0.8,4639.2206350844,4639.2206350844,4640.82037835334,1.6,4644.50163801267,4645.70799777492,1.20635976224821,77,Longer,Ring,78,=,Middle
210,Spatial,4132,1,2,85,1600,7.5,20,2,m,m,-800,400,-800,800,L,S,=,0.49241219051642,0.422766170716666,1.18714276810133,1.33211484747739,1.95907830904215,4647.60152213916,4648.11053054159,4648.11053054159,4649.71070689261,1.6,4652.540874582,4652.540874582,4653.34059943693,0.8,4655.63524255163,NaN,NaN,66,Longer,Index,999,Missed,Missed
210,Spatial,4132,1,2,86,800,5,5,1,r,r,0,400,0,800,L,S,=,0.316122340966487,0.499544693877226,1.63436476970676,1.43456347761049,1.80052927705852,4660.66841311026,4661.00065440948,4661.00065440948,4661.80072380527,0.8,4664.27101536254,4664.27101536254,4665.87102746318,1.6,4669.0849899525,4669.72389958655,0.638909634055381,66,Longer,Index,77,=,Ring
210,Spatial,4132,1,2,87,1600,6.66666666666667,5,2,m,m,-800,800,-800,800,=,L,S,0.364191442025587,0.458960602195407,1.84321162608435,1.40743620697132,1.12029104117271,4671.70171327272,4672.08089585755,4672.08089585755,4674.48107843213,2.4,4678.76119915616,4678.76119915616,4681.96098438595,3.2,4686.7353948682,4687.403962284,0.668567415802499,66,Equals to,Index,78,L,Middle
210,Spatial,4132,1,2,88,800,5,5,1,m,m,-800,400,-800,0,=,L,S,0.215668867184399,0.292133317626399,1.99965324292194,1.82579518885933,1.53086133087791,4688.70177614982,4688.93112099608,4688.93112099608,4691.331210859,2.4,4695.77149752726,4695.77149752726,4697.37132869583,1.6,4700.96832052694,4702.45975833378,1.49143780684699,77,Shorter,Ring,77,S,Ring
210,Spatial,4132,1,2,89,800,1.66666666666667,5,1,l,l,-1600,-1200,-1600,-800,=,L,S,0.323115076627144,0.357139767683057,1.21530434300122,1.88602619437435,1.73797320465269,4704.15162684878,4704.49142238271,4704.49142238271,4706.89133387998,2.4,4710.55141547906,4710.55141547906,4712.15162262703,1.6,4715.81830763071,4716.46788455764,0.649576926925874,78,Longer,Middle,77,S,Ring
210,Spatial,4132,1,2,90,1200,20,7.5,1,l,l,-1600,0,-1600,-400,L,S,=,0.329575369452208,0.247444695731905,1.31876427321706,1.03587595361265,1.86990577565968,4718.38502216097,4718.73166488301,4718.73166488301,4719.53150394329,0.8,4721.68177703523,4721.68177703523,4723.28167845933,1.6,4726.08500984219,4726.92387828533,0.838868443137471,78,Shorter,Middle,66,L,Index
210,Spatial,4132,1,2,91,400,1.25,1.25,2,l,l,-1600,-1200,-1600,-1200,=,L,S,0.493975934312664,0.420121957147202,1.40286694504191,1.61550460125134,1.27586519888159,4728.96843024106,4729.48176016107,4729.48176016107,4732.6816589546,3.2,4737.32175814643,4737.32175814643,4740.52189593711,3.2,4745.50202682414,4746.38795011664,0.885923292502412,66,Equals to,Index,66,=,Index
210,Spatial,4132,1,2,92,800,5,5,1,m,m,-800,400,-800,0,=,L,S,0.434150445086585,0.256768143138353,1.76515190581999,1.03219611502946,1.31781754372211,4747.83508330574,4748.28192133176,4748.28192133176,4750.68209845271,2.4,4754.88208038517,4754.88208038517,4756.48208382416,1.6,4759.26833188331,4760.09973078335,0.83139890003531,77,Shorter,Ring,77,S,Ring
210,Spatial,4132,1,2,93,800,7.5,3.33333333333333,1,l,l,-1600,-400,-1600,-800,S,=,L,0.442745012686081,0.33459868192768,1.42121323395974,1.0121517916981,1.77492214140662,4761.6016344197,4762.06225440076,4762.06225440076,4763.66214844642,1.6,4766.72221342798,4766.72221342798,4769.12219550159,2.4,4772.70203086624,4773.21977472033,0.517743854084074,66,Shorter,Index,77,L,Ring
210,Spatial,4132,1,2,94,800,1.66666666666667,5,1,l,l,-1600,-1200,-1600,-800,L,S,=,0.499451249987147,0.233031797066062,1.44204454522369,1.85221956972918,1.36355217788746,4775.1682122885,4775.68247991141,4775.68247991141,4778.08249214036,2.4,4781.96244502103,4781.96244502103,4783.56239809418,1.6,4787.18505886067,4787.69976247854,0.514703617871419,66,Longer,Index,77,=,Ring
210,Spatial,4132,1,2,95,1600,5,5,2,r,r,0,1600,0,1600,S,=,L,0.335079030302364,0.367441431636378,1.09750261378389,1.63164721440304,1.93647927732968,4789.25162903023,4789.60267314942,4789.60267314942,4792.80256905574,3.2,4797.15266782412,4797.15266782412,4800.35277513865,3.2,4805.35171173287,4805.94786269181,0.596150958939688,78,Equals to,Middle,78,=,Middle
210,Spatial,4132,1,2,96,400,2.5,5,2,l,l,-1600,-1200,-1600,-1200,S,=,L,0.236366861990828,0.279502447384685,1.13872295729979,1.2552596210113,1.52440570330097,4808.05162530893,4808.30267109629,4808.30267109629,4809.90289268034,1.6,4812.6928607285,4812.6928607285,4813.4929522596,0.8,4815.71836736396,4817.36374275309,1.64537538913191,78,Equals to,Middle,66,S,Index
