Subject,Task,SequenceOrder,ListNo,RunNo,TrialNo,Aud_Probe_Dist,Aud_Standard_Vel,Aud_Probe_Vel,Main_Control,Aud_Std_StartCode,Aud_Probe_StartCode,Aud_Std_StartPt,Aud_Std_EndPt,Aud_Probe_StartPt,Aud_Probe_EndPt,RespIndex,RespMiddle,RespRing,ISI_Cross_Std,ISI_Cross_Probe,ISI_Std_Probe,ISI_Probe_Response,ITI,TrialOnset,StdOnset,StdOnsetByStop,StdOffset,StdDur,ProbeOnset,ProbeOnsetByStop,ProbeOffset,ProbeDur,RespWinStart,RespTime,RT,CorrectKC,CorrectResponse,CorrectFinger,SubjRespKC,SubjResponse,SubjRespFinger
232,Temporal,3421,4,2,1,1600,20,20,2,m,m,-800,800,-800,800,=,L,S,0.428808314604569,0.490114269377601,1.12115262440956,1.63553064237391,1.50029616156665,1297573.50972576,1297573.95070229,1297573.95070229,1297574.74858533,0.8,1297575.90861721,1297575.90861721,1297576.70862076,0.8,1297578.49312748,1297579.1779897,0.684862224385142,66,Equals to,Index,66,=,Index
232,Temporal,3421,4,2,2,1200,5,5,1,m,m,-800,0,-800,400,L,S,=,0.239349076903397,0.243819905237375,1.9883040648838,1.05962639600004,1.54288363393203,1297580.85982128,1297581.11869964,1297581.11869964,1297582.71871769,1.6,1297584.7287412,1297584.7287412,1297587.12877631,2.4,1297588.34318956,1297589.35396637,1.01077680126764,66,Longer,Index,66,L,Index
232,Temporal,3421,4,2,3,1600,5,5,2,r,r,0,1600,0,1600,S,=,L,0.250166660157329,0.286231650588196,1.64093061150922,1.0338576740376,1.95384101075783,1297591.07655022,1297591.33883216,1297591.33883216,1297594.53887664,3.2,1297596.21890284,1297596.21890284,1297599.41895053,3.2,1297600.59327644,1297601.20995956,0.616683123633266,78,Equals to,Middle,78,=,Middle
232,Temporal,3421,4,2,4,800,5,5,1,l,l,-1600,-400,-1600,-800,L,S,=,0.351255445879751,0.308559947233418,1.87673036847953,1.14373591307116,1.60566797109407,1297603.34328879,1297603.7090247,1297603.7090247,1297606.10905147,2.4,1297608.01907998,1297608.01907998,1297609.61910028,1.6,1297610.90999377,1297611.42597554,0.515981768956408,78,Shorter,Middle,78,S,Middle
232,Temporal,3421,4,2,5,800,1.66666666666667,5,1,r,r,0,400,0,800,=,L,S,0.268928426406562,0.316246819467764,1.02089477808374,1.54275968773511,1.3849398845284,1297613.22667849,1297613.50915629,1297613.50915629,1297615.9091882,2.4,1297616.959209,1297616.959209,1297618.55922929,1.6,1297620.24337459,1297620.85797511,0.614600523374975,77,Shorter,Ring,77,S,Ring
232,Temporal,3421,4,2,6,1600,5,5,2,m,m,-800,400,-800,800,L,S,=,0.232859730835774,0.465531548618332,1.884722327699,1.7773797450762,1.07955441618099,1297622.40986999,1297622.65929138,1297622.65929138,1297625.05932585,2.4,1297626.97935666,1297626.97935666,1297630.17939633,3.2,1297632.11011369,1297632.63401061,0.523896920727566,66,Longer,Index,77,=,Ring
232,Temporal,3421,4,2,7,1200,10,5,1,r,r,0,1600,0,1200,S,=,L,0.364582187914646,0.303685090068273,1.47828537546194,1.94267794604895,1.76076572319398,1297633.89345322,1297634.26946382,1297634.26946382,1297635.86948348,1.6,1297637.36949828,1297637.36949828,1297639.76953917,2.4,1297641.84350881,1297642.3619845,0.51847568503581,77,Longer,Ring,77,L,Ring
232,Temporal,3421,4,2,8,800,2.5,3.33333333333333,1,r,r,0,400,0,800,S,=,L,0.382246269827868,0.298219526389056,1.83218570953066,1.84753976843058,1.5000991394427,1297644.31020084,1297644.70960663,1297644.70960663,1297646.30963078,1.6,1297648.1696488,1297648.1696488,1297650.56970156,2.4,1297652.56024307,1297653.3860052,0.825762128690258,77,Longer,Ring,78,=,Middle
232,Temporal,3421,4,2,9,1200,10,7.5,1,r,r,0,800,0,1200,L,S,=,0.398608990709194,0.472186201468694,1.84196063276587,1.95000383648486,1.97827268343727,1297655.0602389,1297655.46975761,1297655.46975761,1297656.26977239,0.8,1297658.14980301,1297658.14980301,1297659.74982491,1.6,1297661.84362109,1297662.40204178,0.558420686749741,66,Longer,Index,66,L,Index
232,Temporal,3421,4,2,10,800,5,5,1,l,l,-1600,-400,-1600,-800,L,S,=,0.413154114315114,0.331524173286534,1.04254306385352,1.61294519596414,1.01703950642853,1297664.56029527,1297664.98990463,1297664.98990463,1297667.38993493,2.4,1297668.46995106,1297668.46995106,1297670.06997167,1.6,1297671.82699236,1297672.3379978,0.511005438864231,78,Shorter,Middle,78,S,Middle
232,Temporal,3421,4,2,11,800,1.25,3.33333333333333,1,m,m,-800,-400,-800,0,S,=,L,0.477691249397859,0.333987512411429,1.16755700772955,1.63089026113941,1.58635871315948,1297673.52702341,1297674.02003533,1297674.02003533,1297677.22008046,3.2,1297678.43009364,1297678.43009364,1297680.83012458,2.4,1297682.61038097,1297683.10603634,0.495655376464128,66,Shorter,Index,66,S,Index
232,Temporal,3421,4,2,12,1600,3.75,5,2,m,m,-800,400,-800,800,L,S,=,0.247526277130497,0.32496263360725,1.80188644932738,1.67550271713257,1.03980833345522,1297684.89375715,1297685.16020246,1297685.16020246,1297688.3602402,3.2,1297690.19027574,1297690.19027574,1297693.39031027,3.2,1297695.21046546,1297695.6580435,0.447578039951622,77,Equals to,Ring,77,=,Ring
232,Temporal,3421,4,2,13,400,1.25,1.25,2,r,r,0,400,0,400,=,L,S,0.477704466456999,0.239080670911203,1.23620593297685,1.13967485676852,1.71094992127842,1297696.89383606,1297697.39037352,1297697.39037352,1297700.59041158,3.2,1297701.86044011,1297701.86044011,1297705.06048459,3.2,1297706.34387682,1297706.82600429,0.482127470197156,66,Equals to,Index,66,=,Index
232,Temporal,3421,4,2,14,1200,20,7.5,1,l,l,-1600,0,-1600,-400,S,=,L,0.299205539663703,0.464067880177764,1.73978626463412,1.8261821157291,1.36623571734963,1297708.72723292,1297709.04055095,1297709.04055095,1297709.84054616,0.8,1297711.62057409,1297711.62057409,1297713.22059759,1.6,1297715.19392128,1297715.71411619,0.520194911165163,77,Longer,Ring,77,L,Ring
232,Temporal,3421,4,2,15,800,1.25,3.33333333333333,1,m,m,-800,-400,-800,0,L,S,=,0.488728566897148,0.372626675125858,1.89361707574261,1.55294004304913,1.30305700143516,1297717.26063062,1297717.7606716,1297717.7606716,1297720.96071127,3.2,1297722.89074468,1297722.89074468,1297725.29076953,2.4,1297726.99397425,1297727.95403418,0.960059931734577,78,Shorter,Middle,77,=,Ring
232,Temporal,3421,4,2,16,1600,15,20,2,m,m,-800,400,-800,800,L,S,=,0.394902644021185,0.472507571501389,1.18092088828245,1.18432332253866,1.74602829450056,1297729.42736159,1297729.84083813,1297729.84083813,1297730.64084874,0.8,1297731.8608764,1297731.8608764,1297732.66089374,0.8,1297733.99402506,1297735.2180441,1.22401903523132,77,Equals to,Ring,77,=,Ring
232,Temporal,3421,4,2,17,800,3.75,3.33333333333333,1,m,m,-800,400,-800,0,=,L,S,0.333266983744033,0.400571856006379,1.36616071153522,1.97916970354227,1.43722490188743,1297737.14403953,1297737.49095686,1297737.49095686,1297740.69099493,3.2,1297742.09102019,1297742.09102019,1297744.49104953,2.4,1297746.62741741,1297747.26607171,0.638654296286404,77,Shorter,Ring,66,=,Index
232,Temporal,3421,4,2,18,800,5,5,1,r,r,0,1200,0,800,S,=,L,0.218537603154018,0.302403212072101,1.02351109743551,1.47604251765105,1.13893904212283,1297748.87746402,1297749.1111255,1297749.1111255,1297751.51115484,2.4,1297752.57117408,1297752.57117408,1297754.17119695,1.6,1297755.79417045,1297756.77805912,0.983888673828915,66,Shorter,Index,66,S,Index
232,Temporal,3421,4,2,19,1200,2.5,5,1,l,l,-1600,-800,-1600,-400,=,L,S,0.372649572036706,0.432384936525534,1.58676906832806,1.71239555901152,1.47308574042737,1297758.11084443,1297758.50126199,1297758.50126199,1297761.70130776,3.2,1297763.31132722,1297763.31132722,1297765.71136843,2.4,1297767.57754368,1297768.1381095,0.560565823689103,77,Shorter,Ring,77,S,Ring
232,Temporal,3421,4,2,20,400,3.33333333333333,1.25,2,l,l,-1600,-800,-1600,-1200,L,S,=,0.353523632244974,0.364718070523612,1.12441517864802,1.33337313888744,1.94013879924889,1297769.86091915,1297770.23142695,1297770.23142695,1297772.63145116,2.4,1297773.78147819,1297773.78147819,1297776.98151497,3.2,1297778.46095549,1297779.09008349,0.629128002095968,66,Longer,Index,66,L,Index
232,Temporal,3421,4,2,21,1600,10,20,2,r,r,0,1600,0,1600,L,S,=,0.239089280325951,0.365066020621927,1.42142594760463,1.62308133135108,1.42878372810293,1297781.19431481,1297781.45159604,1297781.45159604,1297783.05161217,1.6,1297784.50163797,1297784.50163797,1297785.30165211,0.8,1297787.06100951,1297787.5300983,0.469088787212968,78,Shorter,Middle,78,S,Middle
232,Temporal,3421,4,2,22,1200,10,7.5,1,r,r,0,800,0,1200,S,=,L,0.490556173540335,0.382217619171745,1.2403529547405,1.72158399329884,1.84710180280434,1297789.1276876,1297789.63171106,1297789.63171106,1297790.43171236,0.8,1297791.7017396,1297791.7017396,1297793.30175701,1.6,1297795.16102825,1297795.80210132,0.641073070233688,77,Longer,Ring,77,L,Ring
232,Temporal,3421,4,2,23,1200,6.66666666666667,7.5,1,m,m,-800,800,-800,400,=,L,S,0.217140582800123,0.252154636071416,1.45523442732256,1.77191506212006,1.99937389696582,1297797.82774344,1297798.06184227,1297798.06184227,1297800.46186552,2.4,1297801.95188797,1297801.95188797,1297803.55191244,1.6,1297805.46110106,1297806.05008716,0.588986102258787,77,Shorter,Ring,77,S,Ring
232,Temporal,3421,4,2,24,800,7.5,3.33333333333333,1,l,l,-1600,-400,-1600,-800,=,L,S,0.495507434521745,0.497395068496982,1.26386397367098,1.1433783016033,1.24626713320405,1297808.22780651,1297808.74198969,1297808.74198969,1297810.3420119,1.6,1297811.64203222,1297811.64203222,1297814.04206509,2.4,1297815.34448827,1297815.89810297,0.553614702541381,78,Longer,Middle,78,L,Middle
232,Temporal,3421,4,2,25,1600,5,5,2,l,l,-1600,-400,-1600,0,S,=,L,0.388056894770006,0.295713420082219,1.85164542324619,1.0487681993131,1.22283325236192,1297817.62781063,1297818.03212059,1297818.03212059,1297820.43215186,2.4,1297822.31219692,1297822.31219692,1297825.51223017,3.2,1297826.71124918,1297827.23408067,0.522831489797682,77,Longer,Ring,78,=,Middle
232,Temporal,3421,4,2,26,800,3.75,3.33333333333333,1,m,m,-800,400,-800,0,=,L,S,0.333919836891123,0.423507089499383,1.3966310505943,1.25540227885849,1.70796088849885,1297828.64458063,1297828.9922821,1297828.9922821,1297832.19232658,3.2,1297833.62234812,1297833.62234812,1297836.02238067,2.4,1297837.42795897,1297838.40206359,0.974104623077437,77,Shorter,Ring,77,S,Ring
232,Temporal,3421,4,2,27,800,1.25,3.33333333333333,1,m,m,-800,-400,-800,0,=,L,S,0.290539331700889,0.21099973528802,1.53360434937116,1.19644139639618,1.26745719977735,1297840.29466361,1297840.60245037,1297840.60245037,1297843.8025635,3.2,1297845.36251538,1297845.36251538,1297847.76257006,2.4,1297849.11135287,1297849.60211871,0.490765831200406,77,Shorter,Ring,77,S,Ring
232,Temporal,3421,4,2,28,800,5,5,1,l,l,-1600,-1200,-1600,-800,S,=,L,0.242228793940576,0.311076179068386,1.54770155430263,1.78045089615992,1.98531613044271,1297851.04471505,1297851.30261263,1297851.30261263,1297852.10260912,0.8,1297853.67263771,1297853.67263771,1297855.27267918,1.6,1297857.21141953,1297857.78613275,0.574713218957186,77,Longer,Ring,77,L,Ring
232,Temporal,3421,4,2,29,400,2.5,5,2,r,r,0,400,0,400,S,=,L,0.25757365456342,0.231983992516807,1.80084343584966,1.37615564546609,1.21344654899493,1297859.94476396,1297860.21272932,1297860.21272932,1297861.81275154,1.6,1297863.64278162,1297863.64278162,1297864.44280024,0.8,1297865.9613427,1297866.56213457,0.600791868055239,66,Shorter,Index,66,S,Index
232,Temporal,3421,4,2,30,800,1.25,3.33333333333333,1,m,m,-800,-400,-800,0,S,=,L,0.410370376239899,0.215894265787998,1.73657343183085,1.01075662191544,1.04911148473927,1297867.96148073,1297868.38284621,1297868.38284621,1297871.58289326,3.2,1297873.34291982,1297873.34291982,1297875.7429575,2.4,1297876.91152469,1297877.87409702,0.96257233293727,66,Shorter,Index,66,S,Index
232,Temporal,3421,4,2,31,1200,3.33333333333333,7.5,1,r,r,0,800,0,1200,L,S,=,0.247245343265567,0.287766757097018,1.07711821397691,1.16739784153603,1.66918535668101,1297879.09487737,1297879.3530068,1297879.3530068,1297881.75303518,2.4,1297882.85306743,1297882.85306743,1297884.45307971,1.6,1297885.76155545,1297886.24210907,0.480553614674136,78,Shorter,Middle,78,S,Middle
232,Temporal,3421,4,2,32,800,2.5,3.33333333333333,1,l,l,-1600,-1200,-1600,-800,=,L,S,0.413098910340964,0.213692409715877,1.62410079141626,1.79798531867662,1.78379923501438,1297888.07825964,1297888.50314414,1297888.50314414,1297890.10316219,1.6,1297891.75319242,1297891.75319242,1297894.15322144,2.4,1297896.09491381,1297896.63414021,0.53922640485689,78,Longer,Middle,78,L,Middle
232,Temporal,3421,4,2,33,800,15,5,1,m,m,-800,400,-800,0,S,=,L,0.367258515654327,0.326958187661392,1.29292854606008,1.08345040840383,1.95622034617384,1297898.59498209,1297898.97329414,1297898.97329414,1297899.77330763,0.8,1297901.10332391,1297901.10332391,1297902.70334421,1.6,1297903.9283385,1297905.15412555,1.2257870498579,77,Longer,Ring,78,=,Middle
232,Temporal,3421,4,2,34,1200,2.5,5,1,l,l,-1600,-800,-1600,-400,S,=,L,0.276859241041734,0.499392419316145,1.5567762129858,1.65266706360573,1.46634188202838,1297907.29502988,1297907.58342103,1297907.58342103,1297910.78346006,3.2,1297912.36348452,1297912.36348452,1297914.76352381,2.4,1297916.5617419,1297917.14611736,0.584375459235162,66,Shorter,Index,66,S,Index
232,Temporal,3421,4,2,35,1600,6.66666666666667,5,2,l,l,-1600,0,-1600,0,=,L,S,0.379797462464045,0.42718648540017,1.99343499842861,1.70308089801279,1.98081538090521,1297918.79509591,1297919.19359123,1297919.19359123,1297921.593618,2.4,1297923.62367047,1297923.62367047,1297926.82369378,3.2,1297928.67847147,1297929.20214354,0.52367206569761,78,Longer,Middle,66,=,Index
232,Temporal,3421,4,2,36,1200,2.5,5,1,m,m,-800,0,-800,400,=,L,S,0.410025128230716,0.320430851658633,1.08908623649732,1.13530569580531,1.92691350057742,1297931.37850268,1297931.80377233,1297931.80377233,1297935.00381329,3.2,1297936.11385104,1297936.11385104,1297938.51387781,2.4,1297939.79520856,1297940.31414872,0.518940159585327,77,Shorter,Ring,66,=,Index
232,Temporal,3421,4,2,37,1200,5,5,1,m,m,-800,800,-800,400,=,L,S,0.246649098671905,0.218049916432623,1.70701244451013,1.23587418175391,1.73325981729733,1297942.42858091,1297942.69394026,1297942.69394026,1297945.89397159,3.2,1297947.63399709,1297947.63399709,1297950.03403798,2.4,1297951.41194138,1297953.14619949,1.73425810481422,77,Shorter,Ring,77,S,Ring
232,Temporal,3421,4,2,38,1200,10,7.5,1,l,l,-1600,-800,-1600,-400,S,=,L,0.467167675939765,0.337259009573421,1.8636161019849,1.15927997643945,1.42647283471063,1297955.06196899,1297955.54411891,1297955.54411891,1297956.34412246,0.8,1297958.2441567,1297958.2441567,1297959.84417187,1.6,1297961.14532466,1297962.5461753,1.40085063898005,77,Longer,Ring,77,L,Ring
232,Temporal,3421,4,2,39,400,5,5,2,r,r,0,400,0,400,L,S,=,0.365538693822789,0.468157533716123,1.05032082954151,1.56531070947479,1.30066831263208,1297964.14537126,1297964.52424105,1297964.52424105,1297965.32426128,0.8,1297966.41428451,1297966.41428451,1297967.21429479,0.8,1297968.92870364,1297969.45814109,0.52943744789809,77,Equals to,Ring,77,=,Ring
232,Temporal,3421,4,2,40,1600,6.66666666666667,5,2,m,m,-800,800,-800,800,=,L,S,0.225965118659192,0.489613702754755,1.32874943138986,1.40904462158754,1.11278263369086,1297970.92873252,1297971.17434759,1297971.17434759,1297973.57437083,2.4,1297974.94439115,1297974.94439115,1297978.1444398,3.2,1297979.69544455,1297980.21015974,0.514715194934979,78,Longer,Middle,66,=,Index
232,Temporal,3421,4,2,41,800,5,5,1,m,m,-800,400,-800,0,=,L,S,0.345404545970198,0.260267608994074,1.58274565283369,1.35677411279931,1.30002164578184,1297981.5121292,1297981.87451851,1297981.87451851,1297984.274527,2.4,1297985.89455132,1297985.89455132,1297987.4945713,1.6,1297988.99536024,1297989.53814626,0.542786025442183,77,Shorter,Ring,77,S,Ring
232,Temporal,3421,4,2,42,1600,10,20,2,l,l,-1600,0,-1600,0,S,=,L,0.255357353840065,0.2604542658107,1.47427491687852,1.74786174875227,1.11771740497609,1297991.01219644,1297991.28463456,1297991.28463456,1297992.88465197,1.6,1297994.38469147,1297994.38469147,1297995.18467962,0.8,1297997.07885895,1297997.62616251,0.547303561586887,66,Shorter,Index,66,S,Index
232,Temporal,3421,4,2,43,1200,10,7.5,1,r,r,0,800,0,1200,S,=,L,0.333613411952028,0.295564151234244,1.85558974651048,1.05189408941739,1.51947853451213,1297998.91222308,1297999.26474867,1297999.26474867,1298000.06477564,0.8,1298001.94478028,1298001.94478028,1298003.54481565,1.6,1298004.74557669,1298005.40219448,0.656617792556062,77,Longer,Ring,77,L,Ring
232,Temporal,3421,4,2,44,1600,20,20,2,r,r,0,1600,0,1600,S,=,L,0.261931217595343,0.24566967389969,1.36697867569378,1.78891323265328,1.43754355314127,1298007.0789215,1298007.35486457,1298007.35486457,1298008.15487549,0.8,1298009.54490905,1298009.54490905,1298010.3449049,0.8,1298012.27894903,1298012.73021533,0.451266302261502,78,Equals to,Middle,78,=,Middle
232,Temporal,3421,4,2,45,1600,7.5,20,2,r,r,0,1200,0,1600,=,L,S,0.290117352526914,0.466101258880038,1.58256152836017,1.41565454253489,1.52355811397013,1298014.34566193,1298014.65497499,1298014.65497499,1298016.2549879,1.6,1298017.86501603,1298017.86501603,1298018.6650539,0.8,1298020.22900262,1298020.83416774,0.605165117420256,77,Shorter,Ring,77,S,Ring
232,Temporal,3421,4,2,46,800,7.5,3.33333333333333,1,l,l,-1600,-400,-1600,-800,L,S,=,0.479594895238983,0.207700595049684,1.32884225441238,1.45455554296705,1.96305900558134,1298022.52904597,1298023.02510401,1298023.02510401,1298024.62511917,1.6,1298025.985125,1298025.985125,1298028.38516717,2.4,1298029.97907055,1298030.72217827,0.74310772609897,66,Longer,Index,66,L,Index
232,Temporal,3421,4,2,47,400,2.5,1.25,2,r,r,0,800,0,400,L,S,=,0.254512383847238,0.27626444323448,1.03837247524996,1.55322153420566,1.30238380395776,1298032.86241662,1298033.13524309,1298033.13524309,1298036.33528629,3.2,1298037.39530168,1298037.39530168,1298040.59534744,3.2,1298042.29578731,1298042.77818648,0.482399169588462,77,Equals to,Ring,77,=,Ring
232,Temporal,3421,4,2,48,800,7.5,3.33333333333333,1,m,m,-800,400,-800,0,L,S,=,0.348662908518156,0.481813947022571,1.64138268646205,1.2111698916214,1.64874553766046,1298044.26248701,1298044.62540505,1298044.62540505,1298046.22542085,1.6,1298047.90544512,1298047.90544512,1298050.30548954,2.4,1298051.66248565,1298052.58617869,0.92369303596206,66,Longer,Index,77,=,Ring
232,Temporal,3421,4,2,49,1200,5,5,1,m,m,-800,800,-800,400,L,S,=,0.409544531375008,0.314420601950704,1.36514611925206,1.77750663402125,1.87191806134937,1298054.44589208,1298054.87555566,1298054.87555566,1298058.07559052,3.2,1298059.47561931,1298059.47561931,1298061.87564833,2.4,1298063.81260177,1298064.31422604,0.501624268479645,78,Shorter,Middle,77,=,Ring
232,Temporal,3421,4,2,50,1200,10,5,1,r,r,0,1600,0,1200,S,=,L,0.384408996439231,0.499052186093646,1.00378968782094,1.47122716425637,1.24042309692526,1298066.36262403,1298066.76572969,1298066.76572969,1298068.36573779,1.6,1298069.39581143,1298069.39581143,1298071.79581254,2.4,1298073.41263659,1298073.93020532,0.517568730283529,77,Longer,Ring,77,L,Ring
232,Temporal,3421,4,2,51,1200,2.5,5,1,l,l,-1600,-800,-1600,-400,L,S,=,0.395341560474415,0.382436455195499,1.47693273605084,1.51051426002578,1.7277644168265,1298075.36268232,1298075.77587506,1298075.77587506,1298078.9758958,3.2,1298080.48592636,1298080.48592636,1298082.88595346,2.4,1298084.54602344,1298084.97820213,0.4321786952205,78,Shorter,Middle,77,=,Ring
232,Temporal,3421,4,2,52,400,2.5,5,2,r,r,0,400,0,400,=,L,S,0.361546860589023,0.235981341633229,1.70987231063688,1.86918925236436,1.45572127295046,1298086.87940501,1298087.25603344,1298087.25603344,1298088.85604443,1.6,1298090.60607768,1298090.60607768,1298091.406087,0.8,1298093.42941294,1298093.94623741,0.516824469203129,77,Shorter,Ring,77,S,Ring
232,Temporal,3421,4,2,53,1600,5,5,2,l,l,-1600,0,-1600,0,=,L,S,0.464049202877297,0.275758779018146,1.90532692272664,1.53983090924699,1.74677499555429,1298095.59611415,1298096.07615005,1298096.07615005,1298099.2761926,3.2,1298101.21622959,1298101.21622959,1298104.41626606,3.2,1298106.09614828,1298106.61027703,0.514128748793155,66,Equals to,Index,66,=,Index
232,Temporal,3421,4,2,54,400,5,5,2,l,l,-1600,-800,-1600,-1200,S,=,L,0.440832470401957,0.465673897552707,1.08256699713015,1.03548269386806,1.39588576998951,1298108.54615894,1298109.00633612,1298109.00633612,1298110.60636989,1.6,1298111.72638491,1298111.72638491,1298112.52638621,0.8,1298113.71246117,1298114.2262191,0.513757921289653,66,Shorter,Index,66,S,Index
232,Temporal,3421,4,2,55,800,5,5,1,l,l,-1600,-1200,-1600,-800,S,=,L,0.36132528983724,0.373780426326732,1.5912390447692,1.61250221276779,1.99263117760697,1298115.77958068,1298116.15644169,1298116.15644169,1298116.95645262,0.8,1298118.58648244,1298118.58648244,1298120.1864976,1.6,1298121.94624059,1298122.45821809,0.511977496324107,77,Longer,Ring,77,L,Ring
232,Temporal,3421,4,2,56,400,5,5,2,m,m,-800,0,-800,-400,L,S,=,0.491021998385643,0.329312738434418,1.53559083301076,1.51559889858011,1.43368935785855,1298124.6295845,1298125.13657185,1298125.13657185,1298126.73658958,1.6,1298128.29663063,1298128.29663063,1298129.09662584,0.8,1298130.76298554,1298131.25823836,0.495252816705033,78,Shorter,Middle,78,S,Middle
232,Temporal,3421,4,2,57,1200,5,5,1,m,m,-800,800,-800,400,=,L,S,0.236603233519898,0.346768280947968,1.10991584455206,1.23172524939455,1.55335520830268,1298132.86299534,1298133.1166911,1298133.1166911,1298136.31672628,3.2,1298137.45675005,1298137.45675005,1298139.85678356,2.4,1298141.24635136,1298141.75423892,0.507887562736869,77,Shorter,Ring,77,S,Ring
232,Temporal,3421,4,2,58,1200,3.33333333333333,7.5,1,l,l,-1600,-800,-1600,-400,L,S,=,0.355905810811773,0.405938521295795,1.10314886800666,1.67535643470709,1.69525439495262,1298143.47973749,1298143.84684163,1298143.84684163,1298146.24687802,2.4,1298147.3768902,1298147.3768902,1298148.97691659,1.6,1298150.796409,1298151.21022294,0.413813933497295,78,Shorter,Middle,78,S,Middle
232,Temporal,3421,4,2,59,400,1.66666666666667,1.25,2,r,r,0,400,0,400,L,S,=,0.390631880043801,0.471522264045997,1.94093535452622,1.39625971232846,1.50884865394941,1298153.07978807,1298153.48698629,1298153.48698629,1298155.88701339,2.4,1298157.85704634,1298157.85704634,1298161.05710334,3.2,1298162.61315139,1298164.08227164,1.46912025264464,66,Longer,Index,77,=,Ring
232,Temporal,3421,4,2,60,1200,10,5,1,m,m,-800,800,-800,400,L,S,=,0.388049280676017,0.269637392571318,1.34851732700625,1.29154650694694,1.40719677443874,1298165.77984654,1298166.1871662,1298166.1871662,1298167.78718393,1.6,1298169.157219,1298169.157219,1298171.55724513,2.4,1298172.99655614,1298174.85024153,1.85368538997136,66,Longer,Index,66,L,Index
232,Temporal,3421,4,2,61,1200,20,7.5,1,l,l,-1600,0,-1600,-400,L,S,=,0.2015647160784,0.323199631420679,1.33393994671745,1.37134003492461,1.45643578788699,1298176.42991636,1298176.64732001,1298176.64732001,1298177.44734312,0.8,1298178.81735349,1298178.81735349,1298180.41736609,1.6,1298181.9299122,1298182.45823894,0.528326734201983,66,Longer,Index,66,L,Index
232,Temporal,3421,4,2,62,1200,5,5,1,r,r,0,1600,0,1200,L,S,=,0.376547523888633,0.293519645256841,1.37570654599433,1.54731905136467,1.46743699895546,1298184.09663789,1298184.48742644,1298184.48742644,1298187.68747637,3.2,1298189.08749746,1298189.08749746,1298191.48753161,2.4,1298193.1800014,1298193.58629771,0.406296302797273,78,Shorter,Middle,78,S,Middle
232,Temporal,3421,4,2,63,1200,20,7.5,1,l,l,-1600,0,-1600,-400,S,=,L,0.281408613354591,0.291139482465567,1.69694498581906,1.82910284445502,1.31504518561096,1298195.23003219,1298195.52759857,1298195.52759857,1298196.32761206,0.8,1298198.05763976,1298198.05763976,1298199.65765107,1.6,1298201.64670674,1298202.37823056,0.731523813679814,77,Longer,Ring,78,=,Middle
232,Temporal,3421,4,2,64,400,10,5,2,l,l,-1600,-800,-1600,-1200,=,L,S,0.264462938018338,0.240497250944023,1.70497651757441,1.58766273304969,1.40056121505254,1298203.86342118,1298204.1477194,1298204.1477194,1298204.94773258,0.8,1298206.68775936,1298206.68775936,1298207.48777959,0.8,1298209.21344182,1298209.7702925,0.556850680848584,66,Equals to,Index,66,=,Index
232,Temporal,3421,4,2,65,800,3.75,3.33333333333333,1,r,r,0,1200,0,800,L,S,=,0.343380735403055,0.387895702457125,1.56147591758458,1.26363774484559,1.48094027752362,1298211.34679378,1298211.70783195,1298211.70783195,1298214.90787323,3.2,1298216.50790099,1298216.50790099,1298218.90793386,2.4,1298220.33015053,1298221.5062627,1.1761121659074,78,Shorter,Middle,78,S,Middle
232,Temporal,3421,4,2,66,400,1.25,1.25,2,r,r,0,400,0,400,L,S,=,0.491996236989861,0.468714379529325,1.165287014632,1.94127971445818,1.62763480209646,1298223.16352056,1298223.66800308,1298223.66800308,1298226.86803858,3.2,1298228.05807669,1298228.05807669,1298231.25811733,3.2,1298233.3469083,1298233.85026335,0.503355043241754,77,Equals to,Ring,77,=,Ring
232,Temporal,3421,4,2,67,800,5,5,1,l,l,-1600,-1200,-1600,-800,S,=,L,0.435695635690065,0.353177689569871,1.92692728407718,1.81189357321879,1.19175105973032,1298235.64693806,1298236.09819172,1298236.09819172,1298236.8981927,0.8,1298238.85822433,1298238.85822433,1298240.45824366,1.6,1298242.4302791,1298243.61829355,1.18801444629207,77,Longer,Ring,77,L,Ring
232,Temporal,3421,4,2,68,1200,5,5,1,l,l,-1600,-800,-1600,-400,S,=,L,0.497115827605654,0.480178046650111,1.14682775018538,1.70346498683937,1.19000669719461,1298244.98030013,1298245.4983212,1298245.4983212,1298247.09834342,1.6,1298248.27836127,1298248.27836127,1298250.6783919,2.4,1298252.53033024,1298253.06629312,0.535962884314358,77,Longer,Ring,77,L,Ring
232,Temporal,3421,4,2,69,1200,5,5,1,m,m,-800,0,-800,400,S,=,L,0.467720357429993,0.345423625746082,1.09620531439967,1.60988950430829,1.57751112671981,1298254.43036829,1298254.90844943,1298254.90844943,1298256.50847839,1.6,1298257.63849538,1298257.63849538,1298260.0385167,2.4,1298261.79704847,1298262.30634232,0.509293854003772,77,Longer,Ring,78,=,Middle
232,Temporal,3421,4,2,70,1600,7.5,20,2,m,m,-800,400,-800,800,=,L,S,0.219240823994042,0.433798199384341,1.95118332951538,1.68411666557112,1.73705545212661,1298264.04710159,1298264.27859129,1298264.27859129,1298265.8786103,1.6,1298267.85863014,1298267.85863014,1298268.6586632,0.8,1298270.4971246,1298271.17828003,0.681155422469601,77,Shorter,Ring,77,S,Ring
232,Temporal,3421,4,2,71,800,1.66666666666667,5,1,m,m,-800,-400,-800,0,L,S,=,0.482635417367828,0.335884423382507,1.86873688629962,1.80019661130968,1.37564131705996,1298273.09714475,1298273.59872457,1298273.59872457,1298275.99875648,2.4,1298277.89878623,1298277.89878623,1298279.4988107,1.6,1298281.44716633,1298281.97827752,0.531111193820834,78,Shorter,Middle,78,S,Middle
232,Temporal,3421,4,2,72,1200,6.66666666666667,7.5,1,r,r,0,1600,0,1200,S,=,L,0.271595913550177,0.394402934191072,1.45563877259049,1.86659830607413,1.14065835163168,1298283.53052946,1298283.81888051,1298283.81888051,1298286.21890343,2.4,1298287.69893194,1298287.69893194,1298289.2989564,1.6,1298291.31390711,1298291.87432223,0.56041511381045,66,Shorter,Index,66,S,Index
232,Temporal,3421,4,2,73,800,3.75,3.33333333333333,1,l,l,-1600,-400,-1600,-800,L,S,=,0.487363866084107,0.367853272374339,1.79953569214834,1.39277061850551,1.7637576247193,1298293.93060522,1298294.42902536,1298294.42902536,1298297.62906953,3.2,1298299.4590964,1298299.4590964,1298301.85913697,2.4,1298303.41397199,1298304.23434566,0.82037366181612,78,Shorter,Middle,77,=,Ring
232,Temporal,3421,4,2,74,800,15,5,1,m,m,-800,400,-800,0,=,L,S,0.390003688774171,0.285295604718178,1.58196368176472,1.51774959668251,1.64702951505098,1298306.16396613,1298306.56921687,1298306.56921687,1298307.36921144,0.8,1298308.97924117,1298308.97924117,1298310.57927044,1.6,1298312.24694067,1298312.74632345,0.499382776441053,78,Longer,Middle,66,=,Index
232,Temporal,3421,4,2,75,800,15,5,1,l,l,-1600,-400,-1600,-800,=,L,S,0.310243550968007,0.438113461890131,1.86144984457571,1.25553598228846,1.56704441018684,1298314.58072899,1298314.90932555,1298314.90932555,1298315.70934,0.8,1298317.60936366,1298317.60936366,1298319.20938331,1.6,1298320.6140641,1298321.17830986,0.564245765097439,78,Longer,Middle,78,L,Middle
232,Temporal,3421,4,2,76,1600,15,20,2,r,r,0,1200,0,1600,L,S,=,0.362217468685395,0.205429303567384,1.92224801895207,1.00410232678092,1.22949640691389,1298322.93077295,1298323.30945887,1298323.30945887,1298324.10945761,0.8,1298326.06949469,1298326.06949469,1298326.86949695,0.8,1298328.01409765,1298328.52230281,0.508205156773329,77,Equals to,Ring,77,=,Ring
232,Temporal,3421,4,2,77,400,5,5,2,l,l,-1600,-1200,-1600,-1200,=,L,S,0.340546950706614,0.3200393314456,1.10733239421007,1.49525618501457,1.95667901569128,1298329.91415251,1298330.26955108,1298330.26955108,1298331.06955623,0.8,1298332.19957162,1298332.19957162,1298332.99958062,0.8,1298334.64748588,1298335.14630471,0.498818833380938,66,Equals to,Index,66,=,Index
232,Temporal,3421,4,2,78,1200,6.66666666666667,7.5,1,r,r,0,1600,0,1200,L,S,=,0.27314621275126,0.447201183240815,1.36151015103243,1.35139597896272,1.1283601655644,1298337.28084235,1298337.56967626,1298337.56967626,1298339.96967994,2.4,1298341.3597074,1298341.3597074,1298342.95973026,1.6,1298344.46419848,1298344.96233847,0.498139989096671,78,Shorter,Middle,78,S,Middle
232,Temporal,3421,4,2,79,1600,3.75,5,2,l,l,-1600,-400,-1600,0,=,L,S,0.427960221623984,0.349473441274615,1.24018998811072,1.2438815834857,1.87649743833584,1298346.2809044,1298346.71978184,1298346.71978184,1298349.9198276,3.2,1298351.18985196,1298351.18985196,1298354.38989387,3.2,1298355.78092835,1298356.36234347,0.581415124004707,66,Equals to,Index,66,=,Index
232,Temporal,3421,4,2,80,400,1.66666666666667,1.25,2,l,l,-1600,-1200,-1600,-1200,S,=,L,0.29228142744203,0.477479160237214,1.27997407118023,1.79021492884976,1.32927373324582,1298358.43098051,1298358.7399728,1298358.7399728,1298361.13998899,2.4,1298362.44001027,1298362.44001027,1298365.64005411,3.2,1298367.56434938,1298368.04233241,0.477983026998118,77,Longer,Ring,77,L,Ring
232,Temporal,3421,4,2,81,800,7.5,3.33333333333333,1,l,l,-1600,-400,-1600,-800,=,L,S,0.357381779899108,0.247751165094719,1.05083344424707,1.87920939170305,1.51208471274772,1298369.5477069,1298369.92012118,1298369.92012118,1298371.52015238,1.6,1298372.60015696,1298372.60015696,1298375.00019111,2.4,1298377.03104985,1298377.53833778,0.507287934655324,78,Longer,Middle,78,L,Middle
232,Temporal,3421,4,2,82,400,2.5,1.25,2,r,r,0,800,0,400,L,S,=,0.324564054937488,0.360887854905965,1.2909178691317,1.86281726588781,1.82341703904268,1298379.23109084,1298379.57026204,1298379.57026204,1298382.77030364,3.2,1298384.0903356,1298384.0903356,1298387.2903727,3.2,1298389.29779776,1298389.94639813,0.648600372252986,77,Equals to,Ring,77,=,Ring
232,Temporal,3421,4,2,83,1200,3.33333333333333,7.5,1,m,m,-800,0,-800,400,S,=,L,0.423493169802914,0.442500933711568,1.908297190748,1.87093288802997,1.80753509670606,1298391.94780992,1298392.39044634,1298392.39044634,1298394.79047985,2.4,1298396.72052064,1298396.72052064,1298398.32052971,1.6,1298400.33119452,1298400.82634755,0.495153027120978,66,Shorter,Index,66,S,Index
232,Temporal,3421,4,2,84,1200,3.33333333333333,7.5,1,m,m,-800,0,-800,400,L,S,=,0.222435380478329,0.24425257700418,1.86390923062568,1.77965714750637,1.73621867024404,1298402.79785646,1298403.0305971,1298403.0305971,1298405.43063703,2.4,1298407.33065844,1298407.33065844,1298408.93068355,1.6,1298410.86460192,1298411.29834312,0.433741201180965,78,Shorter,Middle,78,S,Middle
232,Temporal,3421,4,2,85,1200,5,5,1,l,l,-1600,-800,-1600,-400,S,=,L,0.460324128060224,0.349878959091105,1.98935383944906,1.56011956130352,1.25086029807059,1298413.21462901,1298413.69075437,1298413.69075437,1298415.29077659,1.6,1298417.32081174,1298417.32081174,1298419.72084236,2.4,1298421.43133134,1298421.98638002,0.555048688082024,77,Longer,Ring,78,=,Middle
232,Temporal,3421,4,2,86,1200,10,5,1,r,r,0,1600,0,1200,=,L,S,0.395138741523036,0.373582877808629,1.11981368870875,1.84812258798863,1.88902982229496,1298423.41470241,1298423.8209083,1298423.8209083,1298425.42092667,1.6,1298426.57094952,1298426.57094952,1298428.97097341,2.4,1298430.96472331,1298431.51446978,0.5497464700602,78,Longer,Middle,66,=,Index
232,Temporal,3421,4,2,87,1200,6.66666666666667,7.5,1,r,r,0,1600,0,1200,S,=,L,0.265189017844802,0.215246245690255,1.19106581405518,1.43634617534083,1.19119509274367,1298433.58139773,1298433.86104899,1298433.86104899,1298436.26112196,2.4,1298437.49110122,1298437.49110122,1298439.09112152,1.6,1298440.68142569,1298441.20238478,0.52095908857882,66,Shorter,Index,66,S,Index
232,Temporal,3421,4,2,88,800,2.5,3.33333333333333,1,r,r,0,400,0,800,=,L,S,0.212480716157177,0.390006887450203,1.62532237109111,1.39253501793122,1.43546698288743,1298442.5647919,1298442.79117892,1298442.79117892,1298444.39119954,1.6,1298446.05122404,1298446.05122404,1298448.45126044,2.4,1298449.98149132,1298450.64246535,0.660974032478407,78,Longer,Middle,66,=,Index
232,Temporal,3421,4,2,89,800,2.5,3.33333333333333,1,m,m,-800,-400,-800,0,=,L,S,0.436475244217315,0.310052212039319,1.39835007549246,1.38162065906725,1.69965044448433,1298452.26486613,1298452.72132008,1298452.72132008,1298454.32135449,1.6,1298455.74136348,1298455.74136348,1298458.14140084,2.4,1298459.66487656,1298460.52237178,0.85749521641992,78,Longer,Middle,66,=,Index
232,Temporal,3421,4,2,90,400,10,5,2,r,r,0,800,0,400,S,=,L,0.252007838161973,0.485298008509541,1.76478467608209,1.46903554999711,1.53706217083264,1298462.38156786,1298462.65147471,1298462.65147471,1298463.45149302,0.8,1298465.24150752,1298465.24150752,1298466.04152679,0.8,1298467.66493621,1298468.09039692,0.425460702972487,78,Equals to,Middle,78,=,Middle
232,Temporal,3421,4,2,91,400,3.33333333333333,1.25,2,r,r,0,800,0,400,=,L,S,0.319808594914845,0.202112538371205,1.77415839460735,1.76849504168393,1.92423301060031,1298469.79828413,1298470.131593,1298470.131593,1298472.53160823,2.4,1298474.34163886,1298474.34163886,1298477.54168943,3.2,1298479.46499029,1298481.05039513,1.58540484611876,78,Longer,Middle,78,L,Middle
232,Temporal,3421,4,2,92,800,5,5,1,m,m,-800,-400,-800,0,S,=,L,0.373854461736986,0.346993582799878,1.68727446689532,1.91666995176058,1.37087005852746,1298483.14837012,1298483.54176615,1298483.54176615,1298484.34180114,0.8,1298486.07181216,1298486.07181216,1298487.67183823,1.6,1298489.73173721,1298490.29838386,0.566646648570895,77,Longer,Ring,78,=,Middle
232,Temporal,3421,4,2,93,800,15,5,1,r,r,0,1200,0,800,=,L,S,0.217236239907073,0.279772829120378,1.8152540973267,1.29868093050163,1.15695796780749,1298491.84842363,1298492.08189465,1298492.08189465,1298492.88190077,0.8,1298494.73193895,1298494.73193895,1298496.33195476,1.6,1298497.7817502,1298498.92239956,1.14064936502837,78,Longer,Middle,78,L,Middle
232,Temporal,3421,4,2,94,1200,20,7.5,1,m,m,-800,800,-800,400,S,=,L,0.2830089446754,0.358109933023406,1.14943204488919,1.79701589909636,1.39201249648264,1298500.24846965,1298500.54201285,1298500.54201285,1298501.34203436,0.8,1298502.53204777,1298502.53204777,1298504.1320655,1.6,1298506.08177792,1298506.482404,0.400626077549532,77,Longer,Ring,78,=,Middle
232,Temporal,3421,4,2,95,800,1.66666666666667,5,1,m,m,-800,-400,-800,0,=,L,S,0.278013616682222,0.266732269583152,1.06323737929899,1.34367954754996,1.79535160665981,1298508.0484098,1298508.34213097,1298508.34213097,1298510.74216544,2.4,1298511.84218133,1298511.84218133,1298513.44220612,1.6,1298514.94852376,1298515.61041722,0.661893451353535,77,Shorter,Ring,66,=,Index
232,Temporal,3421,4,2,96,800,1.66666666666667,5,1,l,l,-1600,-1200,-1600,-800,L,S,=,0.422167468620685,0.258311622046363,1.63920670205204,1.08593015831289,1.49840471432369,1298517.5819028,1298518.02228961,1298518.02228961,1298520.4223167,2.4,1298522.08232645,1298522.08232645,1298523.68235733,1.6,1298524.91526359,1298526.11438554,1.19912194740027,78,Shorter,Middle,78,S,Middle
