Subject,Task,SequenceOrder,ListNo,RunNo,TrialNo,Aud_Probe_Dist,Aud_Standard_Vel,Aud_Probe_Vel,Main_Control,Aud_Std_StartCode,Aud_Probe_StartCode,Aud_Std_StartPt,Aud_Std_EndPt,Aud_Probe_StartPt,Aud_Probe_EndPt,RespIndex,RespMiddle,RespRing,ISI_Cross_Std,ISI_Cross_Probe,ISI_Std_Probe,ISI_Probe_Response,ITI,TrialOnset,StdOnset,StdOnsetByStop,StdOffset,StdDur,ProbeOnset,ProbeOnsetByStop,ProbeOffset,ProbeDur,RespWinStart,RespTime,RT,CorrectKC,CorrectResponse,CorrectFinger,SubjRespKC,SubjResponse,SubjRespFinger
227,Spatial,1243,2,2,1,1200,6.66666666666667,7.5,1,m,m,-800,800,-800,400,=,L,S,0.468436084286048,0.305654851993186,1.8862199149908,1.32606867445967,1.9101582548474,784773.456749453,784773.936241488,784773.936241488,784776.342278491,2.4,784778.262634588,784778.262634588,784779.862506671,1.6,784781.323440995,784782.331345322,1.00790432712529,77,Shorter,Ring,66,=,Index
227,Spatial,1243,2,2,2,1200,20,7.5,1,l,l,-1600,0,-1600,-400,S,=,L,0.281819117795401,0.216673266992927,1.81364008418858,1.16983586009502,1.74386659978885,784784.406868567,784784.702629827,784784.702629827,784785.502398869,0.8,784787.352867894,784787.352867894,784788.952666193,1.6,784790.273486087,784790.843452717,0.569966630078852,66,Shorter,Index,77,L,Ring
227,Spatial,1243,2,2,3,800,5,5,1,m,m,-800,400,-800,0,L,S,=,0.495724750065263,0.495033181453236,1.3095772805557,1.78856889357715,1.93558605941961,784792.740230702,784793.252809701,784793.252809701,784795.652617688,2.4,784797.003004267,784797.003004267,784798.60255234,1.6,784800.540233082,784801.315422307,0.775189225096256,78,Shorter,Middle,77,=,Ring
227,Spatial,1243,2,2,4,800,1.25,3.33333333333333,1,l,l,-1600,-1200,-1600,-800,S,=,L,0.205438571553277,0.228075049668367,1.16274787930183,1.89628425594557,1.66533481802651,784803.406975715,784803.623011864,784803.623011864,784806.822911985,3.2,784808.023153851,784808.023153851,784810.422920134,2.4,784812.473639687,784813.115503534,0.641863847733475,77,Longer,Ring,78,=,Middle
227,Spatial,1243,2,2,5,1200,5,5,1,m,m,-800,800,-800,400,L,S,=,0.47874416278617,0.218445901081237,1.2853288663967,1.58938054236581,1.22641907431604,784814.940393034,784815.43309859,784815.43309859,784818.63309816,3.2,784819.943369712,784819.943369712,784822.343289659,2.4,784824.07372194,784824.587242468,0.51352052774746,78,Shorter,Middle,77,=,Ring
227,Spatial,1243,2,2,6,800,15,5,1,r,r,0,1200,0,800,S,=,L,0.291060398987233,0.376295264153295,1.10144050332594,1.41178757397832,1.1723831653639,784825.957131207,784826.263070879,784826.263070879,784827.06310779,0.8,784828.193461301,784828.193461301,784829.793233615,1.6,784831.357083921,784832.363273799,1.00618987763301,66,Shorter,Index,77,L,Ring
227,Spatial,1243,2,2,7,800,15,5,1,m,m,-800,400,-800,0,=,L,S,0.473792119028518,0.357250115733466,1.14558892900643,1.20109780462702,1.38269525468552,784833.69049938,784834.183438479,784834.183438479,784834.983138228,0.8,784836.153513733,784836.153513733,784837.753260062,1.6,784839.10712354,784839.763159144,0.656035603955388,77,Shorter,Ring,77,S,Ring
227,Spatial,1243,2,2,8,1200,3.33333333333333,7.5,1,m,m,-800,0,-800,400,L,S,=,0.361112996065888,0.23758299528057,1.98865974277,1.03691164626712,1.01024717664695,784841.323834381,784841.703787602,784841.703787602,784844.103280561,2.4,784846.123697097,784846.123697097,784847.723576559,1.6,784848.907190973,784849.699272677,0.792081704363227,66,Longer,Index,66,L,Index
227,Spatial,1243,2,2,9,400,1.66666666666667,1.25,2,r,r,0,400,0,400,=,L,S,0.242897560130743,0.436485772653228,1.89215610976595,1.05571344264757,1.58244529357742,784850.873911278,784851.133463919,784851.133463919,784853.533525019,2.4,784855.443886204,784855.443886204,784858.643768681,3.2,784859.84062645,784860.387498532,0.546872082632035,66,Equals to,Index,78,L,Middle
227,Spatial,1243,2,2,10,800,5,5,1,r,r,0,400,0,800,L,S,=,0.285160479822996,0.222427478561757,1.19549276651373,1.59368710564258,1.16947157459096,784862.123971428,784862.423869111,784862.423869111,784863.223656439,0.8,784864.453840695,784864.453840695,784866.053850723,1.6,784867.807320449,784868.36347013,0.556149681098759,66,Longer,Index,66,L,Index
227,Spatial,1243,2,2,11,1200,20,7.5,1,m,m,-800,800,-800,400,L,S,=,0.341416228854142,0.28407474295413,1.33171851080269,1.65002921909117,1.89352566452087,784869.690708222,784870.043967816,784870.043967816,784870.843758993,0.8,784872.204158449,784872.204158449,784873.803724808,1.6,784875.607360292,784876.107518769,0.500158476294018,78,Shorter,Middle,66,L,Index
227,Spatial,1243,2,2,12,1200,10,5,1,l,l,-1600,0,-1600,-400,S,=,L,0.471232181917764,0.417035479303699,1.81424555241132,1.32459573353793,1.60070570844481,784878.140789161,784878.624053188,784878.624053188,784880.223884208,1.6,784882.074084723,784882.074084723,784884.473907146,2.4,784885.940759069,784887.043314387,1.10255531745497,66,Shorter,Index,78,=,Middle
227,Spatial,1243,2,2,13,800,1.66666666666667,5,1,l,l,-1600,-1200,-1600,-800,L,S,=,0.466396024250091,0.482360364582647,1.43943642149546,1.11563294145913,1.97777076010462,784888.79083603,784889.274341942,784889.274341942,784891.674089618,2.4,784893.144308957,784893.144308957,784894.744072609,1.6,784896.007489126,784896.659363285,0.651874158298597,66,Longer,Index,78,S,Middle
227,Spatial,1243,2,2,14,800,5,5,1,m,m,-800,400,-800,0,S,=,L,0.435471003153065,0.324977165257625,1.07115131145998,1.01500172197875,1.63790136290486,784898.790868751,784899.244385757,784899.244385757,784901.644272661,2.4,784902.744702068,784902.744702068,784904.344435885,1.6,784905.507540776,784906.051336366,0.543795589939691,66,Shorter,Index,66,S,Index
227,Spatial,1243,2,2,15,1600,7.5,20,2,l,l,-1600,-400,-1600,0,S,=,L,0.426459986360592,0.216246372611748,1.55745480996281,1.12861430296712,1.29253817492501,784907.840969708,784908.284444002,784908.284444002,784909.884346882,1.6,784911.484669782,784911.484669782,784912.28454116,0.8,784913.574264096,784914.395478807,0.821214710944332,77,Longer,Ring,66,S,Index
227,Spatial,1243,2,2,16,800,5,5,1,l,l,-1600,-1200,-1600,-800,L,S,=,0.489490537527574,0.262394061103577,1.27169440022499,1.27387478824725,1.23307759585143,784915.824350873,784916.324836202,784916.324836202,784917.124623529,0.8,784918.42490851,784918.42490851,784920.024416163,1.6,784921.440986518,784922.075243184,0.634256666176952,66,Longer,Index,66,L,Index
227,Spatial,1243,2,2,17,800,3.75,3.33333333333333,1,l,l,-1600,-400,-1600,-800,S,=,L,0.249091334055851,0.26880627104311,1.55022424999487,1.75691996450295,1.96129071101575,784923.524409516,784923.784836343,784923.784836343,784926.984784585,3.2,784928.574864272,784928.574864272,784930.974695998,2.4,784932.874394085,784934.123347468,1.24895338295028,66,Shorter,Index,77,L,Ring
227,Spatial,1243,2,2,18,800,7.5,3.33333333333333,1,m,m,-800,400,-800,0,=,L,S,0.318604967250693,0.44769688354803,1.97794332028907,1.61795095926058,1.38102393155505,784936.25777448,784936.595102397,784936.595102397,784938.19488658,1.6,784940.205248214,784940.205248214,784942.604706206,2.4,784944.374455037,784944.915511298,0.54105626035016,77,Shorter,Ring,66,=,Index
227,Spatial,1243,2,2,19,800,5,5,1,r,r,0,400,0,800,L,S,=,0.462683456275033,0.389865256915853,1.30170673001332,1.72760548880261,1.73944809617145,784946.457880601,784946.935060936,784946.935060936,784947.734884194,0.8,784949.075297034,784949.075297034,784950.675071273,1.6,784952.557857632,784954.827366092,2.2695084605366,66,Longer,Index,78,S,Middle
227,Spatial,1243,2,2,20,400,3.33333333333333,1.25,2,m,m,-800,0,-800,-400,L,S,=,0.461282106046821,0.288602755689996,1.79356297616751,1.06739831621916,1.20329897371942,784956.707931651,784957.185421999,784957.185421999,784959.585228382,2.4,784961.415496175,784961.415496175,784964.615304547,3.2,784965.824618101,784967.243399335,1.41878123406786,78,Shorter,Middle,66,L,Index
227,Spatial,1243,2,2,21,400,5,5,2,r,r,0,400,0,400,L,S,=,0.373108646747316,0.212427233495629,1.40360170729149,1.36222943819642,1.0036690115647,784968.591315693,784968.975364274,784968.975364274,784969.775153206,0.8,784971.205400274,784971.205400274,784972.005214549,0.8,784973.524709294,784975.43534457,1.91063527681399,77,Equals to,Ring,77,=,Ring
227,Spatial,1243,2,2,22,1200,10,7.5,1,l,l,-1600,-800,-1600,-400,=,L,S,0.392752223157394,0.32965497013024,1.00736579392016,1.03496218332247,1.54406307737551,784976.591408405,784976.995779161,784976.995779161,784977.795261726,0.8,784978.835519555,784978.835519555,784980.435501994,1.6,784981.624700291,784984.187575268,2.56287497759331,78,Longer,Middle,78,L,Middle
227,Spatial,1243,2,2,23,800,7.5,3.33333333333333,1,m,m,-800,400,-800,0,S,=,L,0.219705902130103,0.237399636499646,1.36450743906987,1.66984940210184,1.84972299055019,784985.9081136,784986.145736847,784986.145736847,784987.745594815,1.6,784989.135946607,784989.135946607,784991.535767105,2.4,784993.358046007,784994.083540732,0.725494725047611,66,Shorter,Index,77,L,Ring
227,Spatial,1243,2,2,24,1600,5,5,2,r,r,0,1600,0,1600,L,S,=,0.41259181450539,0.360358504499197,1.8797737873566,1.52797254093466,1.83049492193844,784996.091484756,784996.515999963,784996.515999963,784999.715859342,3.2,785001.61613579,785001.61613579,785004.815635872,3.2,785006.491543013,785007.435255387,0.943712373962626,77,Equals to,Ring,78,S,Middle
227,Spatial,1243,2,2,25,800,3.75,3.33333333333333,1,r,r,0,1200,0,800,L,S,=,0.320356901887666,0.363270827128765,1.23382516124229,1.28305408910755,1.88993688135742,785010.524912213,785010.856276417,785010.856276417,785014.055801521,3.2,785015.326372523,785015.326372523,785017.725898846,2.4,785019.158294693,785019.843399784,0.685105091542937,78,Shorter,Middle,77,=,Ring
227,Spatial,1243,2,2,26,1200,10,5,1,m,m,-800,800,-800,400,=,L,S,0.204273656817722,0.294176012331931,1.4279023428005,1.32265258920063,1.78362028853473,785021.891674735,785022.116269886,785022.116269886,785023.7160422,1.6,785025.166339083,785025.166339083,785027.566208343,2.4,785029.024994338,785030.619456779,1.59446244151331,77,Shorter,Ring,78,L,Middle
227,Spatial,1243,2,2,27,1200,10,7.5,1,r,r,0,800,0,1200,=,L,S,0.398594821859761,0.35119810938759,1.6660625063142,1.42830173139346,1.51333025759459,785032.558393692,785032.976547392,785032.976547392,785033.776336324,0.8,785035.476517558,785035.476517558,785037.076354995,1.6,785038.658387405,785040.06743101,1.40904360532295,78,Longer,Middle,78,L,Middle
227,Spatial,1243,2,2,28,400,5,5,2,r,r,0,800,0,400,L,S,=,0.26593316909887,0.226741890982936,1.80999587401906,1.04307107049485,1.4008888365376,785041.725137446,785042.006762144,785042.006762144,785043.606485375,1.6,785045.446537634,785045.446537634,785046.246344851,0.8,785047.425137929,785047.987341468,0.562203538720496,78,Shorter,Middle,78,S,Middle
227,Spatial,1243,2,2,29,800,5,5,1,l,l,-1600,-1200,-1600,-800,S,=,L,0.273712094773128,0.24263543427728,1.3352906043091,1.02744791590828,1.75469899446609,785049.541845113,785049.826602859,785049.826602859,785050.62644376,0.8,785051.996711733,785051.996711733,785053.596536017,1.6,785054.775221454,785055.443269988,0.668048533378169,77,Longer,Ring,77,L,Ring
227,Spatial,1243,2,2,30,1200,10,7.5,1,r,r,0,800,0,1200,S,=,L,0.444274387457382,0.248228990265577,1.46438809708052,1.18969817614923,1.66163900893844,785057.358577255,785057.816737872,785057.816737872,785058.61654958,0.8,785060.106777991,785060.106777991,785061.706591689,1.6,785063.041880401,785064.051317759,1.00943735789042,77,Longer,Ring,77,L,Ring
227,Spatial,1243,2,2,31,1200,2.5,5,1,l,l,-1600,-800,-1600,-400,S,=,L,0.48687010885525,0.38043978611151,1.47241066537641,1.39242479918281,1.42910329026295,785065.875289444,785066.376884106,785066.376884106,785069.576877902,3.2,785071.077169235,785071.077169235,785073.47697209,2.4,785075.008680332,785075.491379725,0.482699392945506,77,Longer,Ring,78,=,Middle
227,Spatial,1243,2,2,32,1200,10,5,1,m,m,-800,800,-800,400,S,=,L,0.373936917553094,0.243773017274703,1.48782118832798,1.86230969006909,1.71163419973694,785077.075350332,785077.467287759,785077.467287759,785079.067036975,1.6,785080.577269967,785080.577269967,785082.977011227,2.4,785084.992018763,785085.395402456,0.403383692842908,66,Shorter,Index,77,L,Ring
227,Spatial,1243,2,2,33,800,7.5,3.33333333333333,1,l,l,-1600,-400,-1600,-800,=,L,S,0.44889367949365,0.355897065877885,1.57438562712713,1.38974968737437,1.77800948696851,785087.275408012,785087.737252079,785087.737252079,785089.337129616,1.6,785090.947312371,785090.947312371,785093.347044969,2.4,785094.875481897,785095.523654668,0.64817277120892,77,Shorter,Ring,77,S,Ring
227,Spatial,1243,2,2,34,1200,3.33333333333333,7.5,1,r,r,0,800,0,1200,=,L,S,0.340335397924127,0.432737077561528,1.62132358236949,1.67495761042892,1.19530630441284,785097.458815419,785097.817443637,785097.817443637,785100.21714608,2.4,785101.857422643,785101.857422643,785103.457329053,1.6,785105.275479872,785105.835416943,0.55993707140442,78,Longer,Middle,78,L,Middle
227,Spatial,1243,2,2,35,800,1.25,3.33333333333333,1,l,l,-1600,-1200,-1600,-800,=,L,S,0.340322836803516,0.330742070101235,1.82608171055162,1.9996218175782,1.17608260404218,785107.192186799,785107.547597692,785107.547597692,785110.747390987,3.2,785112.597630639,785112.597630639,785114.997390505,2.4,785117.142281408,785118.091397818,0.94911641033832,78,Longer,Middle,78,L,Middle
227,Spatial,1243,2,2,36,400,5,5,2,l,l,-1600,-1200,-1600,-1200,S,=,L,0.270853541945331,0.417851653624512,1.56000781517396,1.80308442069206,1.37057145799472,785119.408981964,785119.697814266,785119.697814266,785120.497387939,0.8,785122.087690905,785122.087690905,785122.887507746,0.8,785124.84229847,785125.283469129,0.441170658450574,78,Equals to,Middle,78,=,Middle
227,Spatial,1243,2,2,37,1600,6.66666666666667,5,2,m,m,-800,800,-800,800,S,=,L,0.386806734419262,0.362505860376653,1.7837456661777,1.16244211393159,1.32854094385989,785126.808955256,785127.207788647,785127.207788647,785129.607681325,2.4,785131.428071941,785131.428071941,785134.627880954,3.2,785135.942342228,785136.515548318,0.57320609036833,78,Equals to,Middle,77,L,Ring
227,Spatial,1243,2,2,38,1200,2.5,5,1,r,r,0,800,0,1200,S,=,L,0.44099668102114,0.448927707643249,1.45199696249579,1.96258301157482,1.72206193934909,785138.009046621,785138.468121845,785138.468121845,785141.667725224,3.2,785143.13822334,785143.13822334,785145.537805161,2.4,785147.659080016,785148.12347226,0.464392243535258,77,Longer,Ring,77,L,Ring
227,Spatial,1243,2,2,39,400,2.5,1.25,2,r,r,0,800,0,400,S,=,L,0.22635382776216,0.268038676711332,1.7821638318233,1.14215435613734,1.10937448167876,785149.992497721,785150.238106055,785150.238106055,785153.437985003,3.2,785155.258402566,785155.258402566,785158.457934727,3.2,785159.742549857,785160.627322848,0.88477299164515,66,Shorter,Index,77,L,Ring
227,Spatial,1243,2,2,40,1200,6.66666666666667,7.5,1,l,l,-1600,0,-1600,-400,S,=,L,0.321493413535205,0.206189868255027,1.14533596178448,1.46102120238247,1.79368346972518,785161.875917819,785162.208331765,785162.208331765,785164.608277376,2.4,785165.78843446,785165.78843446,785167.3882812,1.6,785169.008808907,785169.699563966,0.690755059127696,66,Shorter,Index,66,S,Index
227,Spatial,1243,2,2,41,1200,10,5,1,l,l,-1600,0,-1600,-400,L,S,=,0.375853205343342,0.336645911972778,1.16344724766558,1.78393331448009,1.55293557544391,785171.642645322,785172.038436866,785172.038436866,785173.638244789,1.6,785174.838601502,785174.838601502,785177.238410772,2.4,785179.176012936,785179.755530469,0.579517532372847,78,Shorter,Middle,66,L,Index
227,Spatial,1243,2,2,42,1200,6.66666666666667,7.5,1,r,r,0,1600,0,1200,=,L,S,0.264471008700664,0.284666588303513,1.17463185188547,1.6116978019042,1.33140445547944,785181.492703949,785181.76873432,785181.76873432,785184.168533645,2.4,785185.368833255,785185.368833255,785186.96862193,1.6,785188.726021482,785190.67548648,1.9494649983244,77,Shorter,Ring,78,L,Middle
227,Spatial,1243,2,2,43,1200,5,5,1,r,r,0,800,0,1200,S,=,L,0.46117072570725,0.485773164074901,1.81290080434772,1.66117874704486,1.46928641543789,785192.159396648,785192.638778007,785192.638778007,785194.238576306,1.6,785196.089101151,785196.089101151,785198.488584807,2.4,785200.30947148,785200.843537729,0.534066248801537,77,Longer,Ring,77,L,Ring
227,Spatial,1243,2,2,44,800,1.66666666666667,5,1,r,r,0,400,0,800,S,=,L,0.294405347165262,0.207433836260414,1.34635340912686,1.09125155873011,1.84009956205275,785202.459488462,785202.768955353,785202.768955353,785205.168798628,2.4,785206.539172465,785206.539172465,785208.139003486,1.6,785209.376132512,785210.915527338,1.53939482604619,77,Longer,Ring,77,L,Ring
227,Spatial,1243,2,2,45,800,5,5,1,m,m,-800,400,-800,0,L,S,=,0.486188058210411,0.27974738029736,1.18618200714582,1.56517994951043,1.79522105418691,785212.909563946,785213.409271651,785213.409271651,785215.809109472,2.4,785217.029139698,785217.029139698,785218.629124704,1.6,785220.342872065,785220.947383955,0.604511889861897,78,Shorter,Middle,78,S,Middle
227,Spatial,1243,2,2,46,800,3.75,3.33333333333333,1,m,m,-800,400,-800,0,S,=,L,0.498629721393671,0.264993087803455,1.0145684726592,1.73202461862054,1.15842189308067,785222.89295249,785223.409202999,785223.409202999,785226.609024845,3.2,785227.659565666,785227.659565666,785230.059098084,2.4,785231.942949186,785232.555404137,0.61245495127514,66,Shorter,Index,77,L,Ring
227,Spatial,1243,2,2,47,800,1.66666666666667,5,1,l,l,-1600,-1200,-1600,-800,L,S,=,0.218117893079459,0.35240454493885,1.97080491610479,1.90088313615351,1.75864873243413,785233.859652584,785234.089411367,785234.089411367,785236.489253359,2.4,785238.499504957,785238.499504957,785240.099238454,1.6,785242.143083059,785243.419506889,1.27642382960767,66,Longer,Index,78,S,Middle
227,Spatial,1243,2,2,48,1200,5,5,1,m,m,-800,0,-800,400,S,=,L,0.320440985007006,0.417413933688942,1.61490385151288,1.20773144865709,1.24512257487294,785245.326431596,785245.659554438,785245.659554438,785247.259347925,1.6,785248.909706659,785248.909706659,785251.309522024,2.4,785252.659784177,785253.731504312,1.07172013481613,77,Longer,Ring,77,L,Ring
227,Spatial,1243,2,2,49,800,1.25,3.33333333333333,1,l,l,-1600,-1200,-1600,-800,L,S,=,0.344044529287628,0.389354776871014,1.92531727212742,1.15460504110193,1.32037552683235,785255.293130407,785255.649836699,785255.649836699,785258.849663036,3.2,785260.799776741,785260.799776741,785263.199614242,2.4,785264.493166914,785266.091688144,1.59852123039309,66,Longer,Index,66,L,Index
227,Spatial,1243,2,2,50,800,2.5,3.33333333333333,1,m,m,-800,-400,-800,0,L,S,=,0.250828991475018,0.449103957410492,1.52879547023361,1.59561758158277,1.94504208461068,785267.576580287,785267.84006051,785267.84006051,785269.43983924,1.6,785271.000136296,785271.000136296,785273.39967513,2.4,785275.143237202,785275.747617884,0.604380681877956,66,Longer,Index,66,L,Index
227,Spatial,1243,2,2,51,1600,7.5,20,2,l,l,-1600,-400,-1600,0,=,L,S,0.308529342867782,0.386492261276798,1.00062001773279,1.57707858832845,1.78038383679413,785277.85993072,785278.180090909,785278.180090909,785279.779892737,1.6,785280.809884575,785280.809884575,785281.609837116,0.8,785283.34333064,785283.971573721,0.628243080689572,78,Longer,Middle,77,S,Ring
227,Spatial,1243,2,2,52,800,15,5,1,m,m,-800,400,-800,0,L,S,=,0.33980057171929,0.486609655724587,1.84154172118158,1.36339719612562,1.01481566038893,785285.909996388,785286.270195574,785286.270195574,785287.070046741,0.8,785288.950416452,785288.950416452,785290.550198391,1.6,785292.06000829,785293.427544266,1.36753597634379,78,Shorter,Middle,78,S,Middle
227,Spatial,1243,2,2,53,1200,20,7.5,1,r,r,0,1600,0,1200,=,L,S,0.232396778434907,0.382095387135803,1.89697692006696,1.08679235557596,1.13333116036254,785294.593364656,785294.840425903,785294.840425903,785295.640273862,0.8,785297.570291237,785297.570291237,785299.170161075,1.6,785300.410110101,785300.915570004,0.505459903855808,77,Shorter,Ring,78,L,Middle
227,Spatial,1243,2,2,54,800,1.25,3.33333333333333,1,m,m,-800,-400,-800,0,L,S,=,0.255983407080414,0.27871620113359,1.24244611376578,1.83444017496269,1.47382476736792,785302.210120923,785302.480553891,785302.480553891,785305.680347185,3.2,785306.950709987,785306.950709987,785309.350189793,2.4,785311.32677742,785311.811398486,0.484621065319516,66,Longer,Index,66,L,Index
227,Spatial,1243,2,2,55,800,2.5,3.33333333333333,1,r,r,0,400,0,800,=,L,S,0.292244018373375,0.290521876891198,1.66814484212667,1.25331586835243,1.03860744538299,785313.443376258,785313.750683103,785313.750683103,785315.350493272,1.6,785317.040747604,785317.040747604,785319.440546608,2.4,785320.843086681,785321.379532694,0.536446012556553,78,Longer,Middle,78,L,Middle
227,Spatial,1243,2,2,56,1600,20,20,2,l,l,-1600,0,-1600,0,L,S,=,0.401358636516647,0.39603136507365,1.40719190642872,1.90248298463097,1.1518046443764,785322.593597238,785323.010574877,785323.010574877,785323.810569122,0.8,785325.250523985,785325.250523985,785326.050511814,0.8,785328.093554251,785328.811489914,0.717935663764365,77,Equals to,Ring,77,=,Ring
227,Spatial,1243,2,2,57,400,1.25,1.25,2,l,l,-1600,-1200,-1600,-1200,=,L,S,0.208924682929061,0.368214114811155,1.27324343024073,1.80637094416483,1.53304512097416,785330.110309747,785330.330931443,785330.330931443,785333.530744306,3.2,785334.830985658,785334.830985658,785338.030751043,3.2,785339.977028742,785341.179347976,1.20231923426036,66,Equals to,Index,78,L,Middle
227,Spatial,1243,2,2,58,1200,3.33333333333333,7.5,1,m,m,-800,0,-800,400,S,=,L,0.275130547034746,0.382715399135572,1.70394153300775,1.01762043085076,1.21023917807566,785342.860348404,785343.151137231,785343.151137231,785345.550761077,2.4,785347.281250095,785347.281250095,785348.881079833,1.6,785350.043696462,785350.771718467,0.728022004361264,77,Longer,Ring,77,L,Ring
227,Spatial,1243,2,2,59,1600,20,20,2,m,m,-800,800,-800,800,=,L,S,0.263978791490911,0.28540925626368,1.39649857971679,1.28704740003814,1.10976783443411,785352.160404608,785352.44140512,785352.44140512,785353.240916878,0.8,785354.671280398,785354.671280398,785355.471137019,0.8,785356.91046927,785357.707335719,0.796866449061781,66,Equals to,Index,66,=,Index
227,Spatial,1243,2,2,60,400,10,5,2,l,l,-1600,-800,-1600,-1200,=,L,S,0.24333333535966,0.358475849888288,1.81842841838868,1.20537799583007,1.93717914164985,785358.993818784,785359.251328557,785359.251328557,785360.051133208,0.8,785361.891500494,785361.891500494,785362.691276273,0.8,785364.043780833,785364.651318529,0.607537695788778,77,Shorter,Ring,77,S,Ring
227,Spatial,1243,2,2,61,400,3.33333333333333,1.25,2,r,r,0,800,0,400,L,S,=,0.262897660972946,0.464248979609986,1.08294746514176,1.20255535089575,1.7618036342091,785366.760545248,785367.041580727,785367.041580727,785369.441380052,2.4,785370.561421378,785370.561421378,785373.761179384,3.2,785375.11058253,785375.587655982,0.477073451736942,78,Shorter,Middle,77,=,Ring
227,Spatial,1243,2,2,62,1600,5,5,2,l,l,-1600,-400,-1600,0,S,=,L,0.23965254535868,0.42285204996978,1.10533207261783,1.74740220878522,1.73164181499067,785377.510568186,785377.761623099,785377.761623099,785380.16150872,2.4,785381.301519338,785381.301519338,785384.501477525,3.2,785386.393919708,785386.891587477,0.497667768388055,77,Longer,Ring,77,L,Ring
227,Spatial,1243,2,2,63,1600,3.75,5,2,r,r,0,1200,0,1600,=,L,S,0.285483652039436,0.217487710497293,1.04564930188337,1.93388920851429,1.3034008938552,785388.7773386,785389.081929298,785389.081929298,785392.28174184,3.2,785393.351784866,785393.351784866,785396.55182582,3.2,785398.627328943,785399.507495222,0.880166278220713,78,Longer,Middle,78,L,Middle
227,Spatial,1243,2,2,64,1600,10,20,2,r,r,0,1600,0,1600,=,L,S,0.254820628476044,0.463558899714773,1.09200450549767,1.80554196998483,1.18781050104166,785400.977422586,785401.252045871,785401.252045871,785402.85184417,1.6,785403.972098187,785403.972098187,785404.771952883,0.8,785406.727402856,785407.867496197,1.14009334053844,66,Equals to,Index,77,S,Ring
227,Spatial,1243,2,2,65,1200,20,7.5,1,r,r,0,1600,0,1200,L,S,=,0.483102755379735,0.424686328927317,1.81551001835679,1.64022063197569,1.9386969858375,785409.210806477,785409.712003025,785409.712003025,785410.511888517,0.8,785412.362266756,785412.362266756,785413.962064092,1.6,785415.744158359,785416.531796306,0.787637947476469,78,Shorter,Middle,66,L,Index
227,Spatial,1243,2,2,66,800,7.5,3.33333333333333,1,r,r,0,1200,0,800,=,L,S,0.37608778252985,0.417548208191853,1.34692589400663,1.0115636300597,1.77224481358789,785418.610857036,785419.002231776,785419.002231776,785420.602119899,1.6,785421.972508814,785421.972508814,785424.371929593,2.4,785425.544169966,785427.307790424,1.76362045761198,77,Shorter,Ring,66,=,Index
227,Spatial,1243,2,2,67,1200,5,5,1,m,m,-800,800,-800,400,=,L,S,0.250728858089682,0.445889926268455,1.2140088617458,1.61136538217884,1.06465032386349,785429.227548501,785429.492557987,785429.492557987,785432.692060955,3.2,785433.942416609,785433.942416609,785436.342212406,2.4,785438.110977486,785438.811641654,0.700664168223739,77,Shorter,Ring,66,=,Index
227,Spatial,1243,2,2,68,400,1.66666666666667,1.25,2,m,m,-800,-400,-800,-400,=,L,S,0.337874856915154,0.307540544152841,1.24932942760807,1.84420345615576,1.57314742192383,785440.027657958,785440.38253632,785440.38253632,785442.782267314,2.4,785444.062350421,785444.062350421,785447.262272036,3.2,785449.260988597,785449.85146058,0.590471983421594,66,Equals to,Index,78,L,Middle
227,Spatial,1243,2,2,69,1600,10,20,2,l,l,-1600,0,-1600,0,L,S,=,0.328991606117526,0.37436762819027,1.79460629377059,1.45337337261529,1.69367712866485,785451.577749291,785451.922823938,785451.922823938,785453.522642127,1.6,785455.352845759,785455.352845759,785456.152631803,0.8,785457.744422747,785458.139635556,0.39521280862391,77,Equals to,Ring,78,S,Middle
227,Spatial,1243,2,2,70,1200,2.5,5,1,m,m,-800,0,-800,400,=,L,S,0.298772155075355,0.420431743509068,1.7932340550708,1.25301764857466,1.32573320266726,785459.994441461,785460.31289787,785460.31289787,785463.512768799,3.2,785465.332969178,785465.332969178,785467.732731932,2.4,785469.127774538,785470.083537203,0.955762665485963,78,Longer,Middle,78,L,Middle
227,Spatial,1243,2,2,71,1200,5,5,1,r,r,0,800,0,1200,S,=,L,0.379450357786807,0.434349800348273,1.59486438897648,1.91858773379921,1.06928373753677,785471.561194937,785471.953221867,785471.953221867,785473.552661189,1.6,785475.173224139,785475.173224139,785477.572705549,2.4,785479.644563772,785481.099658795,1.45509502280038,77,Longer,Ring,77,L,Ring
227,Spatial,1243,2,2,72,1200,2.5,5,1,m,m,-800,0,-800,400,S,=,L,0.201451421518497,0.409707753829841,1.75901192149229,1.82668255405548,1.87675336600614,785482.311268561,785482.523038683,785482.523038683,785485.723054614,3.2,785487.523204538,785487.523204538,785489.923063853,2.4,785491.911248479,785493.019672551,1.10842407227028,77,Longer,Ring,77,L,Ring
227,Spatial,1243,2,2,73,400,10,5,2,m,m,-800,0,-800,-400,S,=,L,0.4913913559199,0.36565982142238,1.52018855756316,1.82009540305487,1.76712445708853,785497.111308404,785497.613353153,785497.613353153,785498.413202716,0.8,785499.963560679,785499.963560679,785500.763392919,0.8,785502.727986075,785503.283537139,0.555551064317115,66,Shorter,Index,66,S,Index
227,Spatial,1243,2,2,74,800,2.5,3.33333333333333,1,m,m,-800,-400,-800,0,L,S,=,0.306160401683166,0.370580204827153,1.46680420468494,1.75159254237003,1.88273807633796,785505.194749688,785505.513422959,785505.513422959,785507.113269057,1.6,785508.613512591,785508.613512591,785511.013328598,2.4,785512.911385461,785513.795580052,0.884194590849802,66,Longer,Index,66,L,Index
227,Spatial,1243,2,2,75,400,2.5,1.25,2,l,l,-1600,-800,-1600,-1200,L,S,=,0.353305247793916,0.383858746829879,1.80146481124096,1.62007997691832,1.18938253112156,785515.828136018,785516.193635176,785516.193635176,785519.39344419,3.2,785521.22373893,785521.22373893,785524.42359446,3.2,785526.19486308,785527.107723761,0.912860681302845,78,Shorter,Middle,78,S,Middle
227,Spatial,1243,2,2,76,1600,15,20,2,l,l,-1600,-400,-1600,0,L,S,=,0.307480403423838,0.330960030152591,1.7739819569049,1.15631930081645,1.96933220383531,785528.44490154,785528.763829576,785528.763829576,785529.563674327,0.8,785531.36392402,785531.36392402,785532.16375658,0.8,785533.461536463,785533.875594527,0.414058063994162,66,Longer,Index,66,L,Index
227,Spatial,1243,2,2,77,800,15,5,1,m,m,-800,400,-800,0,=,L,S,0.306319615754487,0.428932091746571,1.89858167762044,1.35230858547488,1.20844653989743,785535.994887376,785536.313937911,785536.313937911,785537.113675835,0.8,785539.04405347,785539.04405347,785540.643833162,1.6,785542.144961533,785543.027860384,0.882898851414211,77,Shorter,Ring,77,S,Ring
227,Spatial,1243,2,2,78,1200,5,5,1,r,r,0,800,0,1200,S,=,L,0.296566206853259,0.421654068029065,1.84764809579859,1.02285161666912,1.19298297838061,785544.378277074,785544.694134665,785544.694134665,785546.293918849,1.6,785548.174249743,785548.174249743,785550.574003194,2.4,785551.744968379,785552.483655772,0.738687393022701,77,Longer,Ring,78,=,Middle
227,Spatial,1243,2,2,79,1600,6.66666666666667,5,2,l,l,-1600,0,-1600,0,=,L,S,0.364319775932575,0.367630674585796,1.29123552651129,1.84790994454341,1.30353350445744,785553.845024647,785554.224472284,785554.224472284,785556.623961073,2.4,785557.9543065,785557.9543065,785561.154106531,3.2,785563.145102494,785564.475882415,1.3307799200993,66,Equals to,Index,78,L,Middle
227,Spatial,1243,2,2,80,400,1.25,1.25,2,m,m,-800,-400,-800,-400,S,=,L,0.316024921205341,0.455908410588753,1.68359675946815,1.55858638284283,1.13782563719235,785565.928411394,785566.264497486,785566.264497486,785569.464321256,3.2,785571.17438063,785571.17438063,785574.374233915,3.2,785576.078449923,785576.587765055,0.50931513227988,78,Equals to,Middle,77,L,Ring
227,Spatial,1243,2,2,81,800,5,5,1,r,r,0,1200,0,800,=,L,S,0.432796952309161,0.21381014726516,1.3606655103762,1.84573390797653,1.07499895710489,785577.878539811,785578.324515079,785578.324515079,785580.7244408,2.4,785582.124699604,785582.124699604,785583.724478655,1.6,785585.728541383,785586.21193121,0.48338982660789,77,Shorter,Ring,77,S,Ring
227,Spatial,1243,2,2,82,1600,15,20,2,m,m,-800,400,-800,800,=,L,S,0.486815056015756,0.442209556193603,1.57767909644446,1.80668074491124,1.02823175637059,785587.428606715,785587.934712224,785587.934712224,785588.734579752,0.8,785590.334772728,785590.334772728,785591.134596627,0.8,785593.078575035,785593.57984862,0.501273584552109,78,Longer,Middle,66,=,Index
227,Spatial,1243,2,2,83,1600,5,5,2,l,l,-1600,-400,-1600,0,=,L,S,0.28088876780755,0.202777106301803,1.19128846506853,1.63771685348272,1.893457807143,785594.761944266,785595.05475543,785595.05475543,785597.45455668,2.4,785598.665012245,785598.665012245,785601.86458194,3.2,785603.645344925,785604.243673942,0.59832901658956,78,Longer,Middle,78,L,Middle
227,Spatial,1243,2,2,84,1200,10,7.5,1,m,m,-800,0,-800,400,=,L,S,0.358046630288957,0.362220610033838,1.18226608757116,1.05670149786008,1.01294342969714,785606.278719974,785606.655037223,785606.655037223,785607.454820059,0.8,785608.655000972,785608.655000972,785610.254986299,1.6,785611.462012212,785611.979662426,0.517650214023888,78,Longer,Middle,78,L,Middle
227,Spatial,1243,2,2,85,400,2.5,5,2,r,r,0,400,0,400,S,=,L,0.252807199447431,0.267010923909384,1.92970880200137,1.39494613833613,1.30800899539178,785613.128710339,785613.395036697,785613.395036697,785614.994865151,1.6,785616.955162721,785616.955162721,785617.754869847,0.8,785619.312110768,785620.667766056,1.35565528809093,78,Equals to,Middle,66,S,Index
227,Spatial,1243,2,2,86,1600,3.75,5,2,m,m,-800,400,-800,800,=,L,S,0.206348465326435,0.484880681948093,1.95782320710344,1.83014472010908,1.80670877239567,785622.145450737,785622.365266256,785622.365266256,785625.56514745,3.2,785627.555201666,785627.555201666,785630.755171722,3.2,785632.728798346,785633.627618307,0.898819961352274,78,Longer,Middle,78,L,Middle
227,Spatial,1243,2,2,87,1200,5,5,1,r,r,0,1600,0,1200,L,S,=,0.457282543862041,0.211885928991521,1.56911982330734,1.99925325784869,1.90764798015958,785635.595516277,785636.065605601,785636.065605601,785639.265454394,3.2,785640.865725003,785640.865725003,785643.26518075,2.4,785645.412285317,785646.091666971,0.67938165483065,78,Shorter,Middle,78,S,Middle
227,Spatial,1243,2,2,88,400,5,5,2,r,r,0,800,0,400,S,=,L,0.336898584891502,0.246162969690992,1.43102753317392,1.83263280522134,1.17841496413981,785648.145642897,785648.495617477,785648.495617477,785650.095364768,1.6,785651.555421736,785651.555421736,785652.35551575,0.8,785654.345620377,785654.923705868,0.578085491200909,66,Shorter,Index,66,S,Index
227,Spatial,1243,2,2,89,1200,5,5,1,r,r,0,1600,0,1200,L,S,=,0.201494802198867,0.261273865143363,1.3541726768862,1.93616283554791,1.69416768631437,785656.262312547,785656.475700796,785656.475700796,785659.675512055,3.2,785661.065810272,785661.065810272,785663.465585217,2.4,785665.545680624,785666.075636488,0.529955864069052,78,Shorter,Middle,66,L,Index
227,Spatial,1243,2,2,90,1200,3.33333333333333,7.5,1,l,l,-1600,-800,-1600,-400,S,=,L,0.262879896715742,0.261105975857948,1.37072139180997,1.51138795855794,1.13147245622657,785667.929051715,785668.205741929,785668.205741929,785670.605632362,2.4,785672.015876775,785672.015876775,785673.61569368,1.6,785675.279069969,785676.059876761,0.780806791735813,77,Longer,Ring,66,S,Index
227,Spatial,1243,2,2,91,1600,5,5,2,l,l,-1600,0,-1600,0,=,L,S,0.352342516691498,0.248425647640809,1.91318653486562,1.9096236511669,1.80105115278474,785677.345791685,785677.716253011,785677.716253011,785680.915994978,3.2,785682.856144888,785682.856144888,785686.056069391,3.2,785688.112546692,785688.61949688,0.506950187380426,66,Equals to,Index,78,L,Middle
227,Spatial,1243,2,2,92,800,1.66666666666667,5,1,l,l,-1600,-1200,-1600,-800,S,=,L,0.299271012513203,0.360362983764526,1.75654519356687,1.47042998166552,1.69157122845806,785690.579250645,785690.896211153,785690.896211153,785693.296004704,2.4,785695.086278092,785695.086278092,785696.686125153,1.6,785698.295901817,785698.851771117,0.555869300034828,77,Longer,Ring,66,S,Index
227,Spatial,1243,2,2,93,800,3.75,3.33333333333333,1,r,r,0,1200,0,800,=,L,S,0.383767382298655,0.40906298249649,1.23677731116147,1.98844548084982,1.41876970088628,785700.71259912,785701.116602237,785701.116602237,785704.316133757,3.2,785705.57654335,785705.57654335,785707.976394646,2.4,785710.112682501,785710.859796624,0.747114123078063,77,Shorter,Ring,66,=,Index
227,Spatial,1243,2,2,94,1200,6.66666666666667,7.5,1,l,l,-1600,0,-1600,-400,L,S,=,0.270824482504675,0.289515127620848,1.86379249788088,1.47678826168546,1.72550880034029,785712.42938535,785712.716785864,785712.716785864,785715.116303525,2.4,785717.006735838,785717.006735838,785718.606553385,1.6,785720.246022855,785720.819742229,0.573719373787753,78,Shorter,Middle,78,S,Middle
227,Spatial,1243,2,2,95,800,2.5,3.33333333333333,1,l,l,-1600,-1200,-1600,-800,L,S,=,0.340837477464099,0.386155657094868,1.33354505267405,1.06702980223591,1.82644601567547,785722.696113418,785723.056687301,785723.056687301,785724.656523133,1.6,785726.026983266,785726.026983266,785728.426769118,2.4,785729.646142727,785730.899876042,1.25373331550509,66,Longer,Index,66,L,Index
227,Spatial,1243,2,2,96,400,2.5,5,2,r,r,0,400,0,400,L,S,=,0.401676553911326,0.405831200615473,1.37067121975093,1.7142993393249,1.47214029844912,785732.86283045,785733.276973161,785733.276973161,785734.876756061,1.6,785736.287007532,785736.287007532,785737.086856774,0.8,785738.946139884,785740.739738983,1.79359909868799,77,Equals to,Ring,78,S,Middle
