Subject,Task,SequenceOrder,ListNo,RunNo,TrialNo,Aud_Probe_Dist,Aud_Standard_Vel,Aud_Probe_Vel,Main_Control,Aud_Std_StartCode,Aud_Probe_StartCode,Aud_Std_StartPt,Aud_Std_EndPt,Aud_Probe_StartPt,Aud_Probe_EndPt,RespIndex,RespMiddle,RespRing,ISI_Cross_Std,ISI_Cross_Probe,ISI_Std_Probe,ISI_Probe_Response,ITI,TrialOnset,StdOnset,StdOnsetByStop,StdOffset,StdDur,ProbeOnset,ProbeOnsetByStop,ProbeOffset,ProbeDur,RespWinStart,RespTime,RT,CorrectKC,CorrectResponse,CorrectFinger,SubjRespKC,SubjResponse,SubjRespFinger
223,Temporal,4132,3,3,1,1200,6.66666666666667,7.5,1,l,l,-1600,0,-1600,-400,L,S,=,0.250575372104574,0.37608933835621,1.4387250446379,1.86361581781538,1.3562334206214,283751.034964548,283751.296457722,283751.296457722,283753.69702601,2.4,283755.167305018,283755.167305018,283756.767364771,1.6,283758.785030105,283759.391653562,0.60662345692981,78,Shorter,Middle,77,=,Ring
223,Temporal,4132,3,3,2,1200,2.5,5,1,r,r,0,800,0,1200,S,=,L,0.219354497482911,0.383416527559271,1.99495453265613,1.24786069910567,1.28675585384825,283760.901756167,283761.137354608,283761.137354608,283764.337279752,3.2,283766.357460177,283766.357460177,283768.757434661,2.4,283770.151779522,283770.735656454,0.583876932563726,66,Shorter,Index,78,=,Middle
223,Temporal,4132,3,3,3,1200,10,5,1,l,l,-1600,0,-1600,-400,L,S,=,0.46945158551671,0.285653335167359,1.3965987934899,1.58588267190549,1.79611888223865,283772.168450968,283772.657577013,283772.657577013,283774.257424716,1.6,283775.677506206,283775.677506206,283778.07738477,2.4,283779.801786611,283780.391860158,0.590073547093198,66,Longer,Index,66,L,Index
223,Temporal,4132,3,3,4,1200,6.66666666666667,7.5,1,r,r,0,1600,0,1200,=,L,S,0.356896588670159,0.319682795574707,1.97773878784463,1.55229041053394,1.80126124524977,283782.351828861,283782.727729709,283782.727729709,283785.12763137,2.4,283787.127845711,283787.127845711,283788.727559639,1.6,283790.418513685,283791.567676424,1.14916273840936,77,Shorter,Ring,77,S,Ring
223,Temporal,4132,3,3,5,1200,5,5,1,r,r,0,800,0,1200,S,=,L,0.21583662277781,0.351267232677935,1.0027146162769,1.96527481751088,1.11220574054667,283793.518546214,283793.747941207,283793.747941207,283795.347820348,1.6,283796.387981615,283796.387981615,283798.787706515,2.4,283800.901910249,283801.687713855,0.785803606151603,77,Longer,Ring,77,L,Ring
223,Temporal,4132,3,3,6,400,5,5,2,m,m,-800,0,-800,-400,S,=,L,0.474102306421633,0.258458982973683,1.98866133472082,1.26640077046458,1.13723916012703,283802.935341956,283803.428026066,283803.428026066,283805.027879222,1.6,283807.038186961,283807.038186961,283807.837848534,0.8,283809.251958337,283810.783562803,1.53160446631955,66,Shorter,Index,66,S,Index
223,Temporal,4132,3,3,7,400,3.33333333333333,1.25,2,r,r,0,800,0,400,=,L,S,0.382253776588033,0.290642068460208,1.16281523305325,1.49756464230194,1.49896016314957,283812.068667061,283812.468071479,283812.468071479,283814.867959025,2.4,283816.068138655,283816.068138655,283819.268178646,3.2,283820.918665425,283821.383761187,0.46509576268727,78,Longer,Middle,78,L,Middle
223,Temporal,4132,3,3,8,1600,10,20,2,m,m,-800,800,-800,800,L,S,=,0.259503669408645,0.409815344035126,1.24375572374735,1.1293315899775,1.40754649772488,283823.035408218,283823.308231161,283823.308231161,283824.908146553,1.6,283826.17835152,283826.17835152,283826.978201724,0.8,283828.252078317,283828.927718461,0.675640144618228,78,Shorter,Middle,78,S,Middle
223,Temporal,4132,3,3,9,1600,10,20,2,m,m,-800,800,-800,800,S,=,L,0.449814000332011,0.230875780892212,1.96330111029035,1.94666617052508,1.63594057917922,283830.485491402,283830.94829595,283830.94829595,283832.548271974,1.6,283834.54864864,283834.54864864,283835.348484409,0.8,283837.452140809,283837.943786158,0.491645349364262,66,Shorter,Index,66,S,Index
223,Temporal,4132,3,3,10,400,1.25,1.25,2,r,r,0,400,0,400,L,S,=,0.318171602912855,0.254520280378032,1.92790448592463,1.79028987589099,1.50750903353893,283839.735528454,283840.068329853,283840.068329853,283843.26841219,3.2,283845.228467233,283845.228467233,283848.428520698,3.2,283850.352198104,283851.679627395,1.32742929039523,77,Equals to,Ring,66,L,Index
223,Temporal,4132,3,3,11,800,15,5,1,l,l,-1600,-400,-1600,-800,S,=,L,0.284603999044673,0.334677240514892,1.2126888547031,1.03569536276356,1.79118843034624,283853.335621936,283853.638751059,283853.638751059,283854.438587149,0.8,283855.678718838,283855.678718838,283857.278780516,1.6,283858.468919083,283859.015774484,0.546855401014909,77,Longer,Ring,77,L,Ring
223,Temporal,4132,3,3,12,1600,7.5,20,2,l,l,-1600,-400,-1600,0,=,L,S,0.34237181240575,0.273036682813322,1.32468292461021,1.2878059217498,1.42220160569171,283860.952340348,283861.308912224,283861.308912224,283862.908821841,1.6,283864.258746145,283864.258746145,283865.058647357,0.8,283866.485657256,283868.119742935,1.63408567855367,77,Shorter,Ring,77,S,Ring
223,Temporal,4132,3,3,13,1200,20,7.5,1,r,r,0,1600,0,1200,=,L,S,0.492697836989045,0.466308327205376,1.75188508735248,1.52165116765888,1.14371269024003,283869.68572424,283870.189098392,283870.189098392,283870.988950842,0.8,283872.769129227,283872.769129227,283874.36902088,1.6,283876.035346624,283877.367791976,1.33244535297854,78,Longer,Middle,78,L,Middle
223,Temporal,4132,3,3,14,1200,2.5,5,1,r,r,0,800,0,1200,L,S,=,0.310498896449286,0.321199014488243,1.18822517576111,1.51567622438269,1.09664882792709,283878.685733222,283879.009042406,283879.009042406,283882.209010537,3.2,283883.41891368,283883.41891368,283885.818949116,2.4,283887.485783011,283887.95976371,0.473980699258391,78,Shorter,Middle,77,=,Ring
223,Temporal,4132,3,3,15,1200,20,7.5,1,l,l,-1600,0,-1600,-400,L,S,=,0.283638311933768,0.375418294299446,1.75301778219827,1.76509597118457,1.13122619032523,283889.202506363,283889.499152396,283889.499152396,283890.299027302,0.8,283892.089319938,283892.089319938,283893.68919138,1.6,283895.602527697,283896.479629063,0.877101366175339,66,Longer,Index,77,=,Ring
223,Temporal,4132,3,3,16,800,15,5,1,l,l,-1600,-400,-1600,-800,=,L,S,0.261834128827474,0.338007012343038,1.53827550489066,1.27581709788022,1.61341330835756,283897.769186375,283898.049249823,283898.049249823,283898.849301813,0.8,283900.419603726,283900.419603726,283902.01913223,1.6,283903.435887688,283904.087711481,0.651823792373762,78,Longer,Middle,78,L,Middle
223,Temporal,4132,3,3,17,1200,3.33333333333333,7.5,1,l,l,-1600,-800,-1600,-400,L,S,=,0.232067927894352,0.491697839415548,1.96450111340687,1.32503544915614,1.81418963645681,283905.852591087,283906.099720665,283906.099720665,283908.499317564,2.4,283910.499531905,283910.499531905,283912.099319938,1.6,283913.569331041,283914.895638566,1.32630752527621,78,Shorter,Middle,78,S,Middle
223,Temporal,4132,3,3,18,1200,5,5,1,m,m,-800,800,-800,400,S,=,L,0.2481325195122,0.281344993399914,1.15030319960422,1.16341770427439,1.14711110399922,283916.869327336,283917.12970893,283917.12970893,283920.329619317,3.2,283921.519783824,283921.519783824,283923.919667521,2.4,283925.235988484,283925.951624959,0.715636474720668,66,Shorter,Index,78,=,Middle
223,Temporal,4132,3,3,19,1600,15,20,2,r,r,0,1200,0,1600,L,S,=,0.390285190153843,0.36490736849699,1.45680313554909,1.68571073377353,1.76604856525244,283927.236071251,283927.639689406,283927.639689406,283928.439632643,0.8,283929.919647997,283929.919647997,283930.719660527,0.8,283932.55275075,283933.719919184,1.1671684331377,77,Equals to,Ring,77,=,Ring
223,Temporal,4132,3,3,20,1600,5,5,2,m,m,-800,800,-800,800,S,=,L,0.488535854971765,0.371572041030535,1.68357433722571,1.80569306626549,1.82496928776375,283935.636124055,283936.139737205,283936.139737205,283939.339788104,3.2,283941.04980417,283941.04980417,283944.249837745,3.2,283946.202807276,283946.719736647,0.516929371573497,78,Equals to,Middle,77,L,Ring
223,Temporal,4132,3,3,21,400,10,5,2,r,r,0,800,0,400,S,=,L,0.434886116176952,0.40755475649346,1.19495099034637,1.67643213932171,1.07241787270414,283948.686189082,283949.140119281,283949.140119281,283949.939932272,0.8,283951.160203741,283951.160203741,283951.960070307,0.8,283953.769547198,283954.727831127,0.95828392956173,78,Equals to,Middle,78,=,Middle
223,Temporal,4132,3,3,22,1200,5,5,1,m,m,-800,800,-800,400,=,L,S,0.230154523251843,0.433326895392415,1.79901283426489,1.85275942024073,1.77876829243617,283955.952718253,283956.200131741,283956.200131741,283959.400014218,3.2,283961.23019379,283961.23019379,283963.630101226,2.4,283965.636259434,283966.279698099,0.643438665487338,77,Shorter,Ring,66,=,Index
223,Temporal,4132,3,3,23,1600,5,5,2,r,r,0,1200,0,1600,S,=,L,0.472738074194265,0.401007321441246,1.1729391558819,1.02940437619662,1.51318411953503,283968.219411995,283968.710519635,283968.710519635,283971.110412635,2.4,283972.310398821,283972.310398821,283975.510266863,3.2,283976.686285644,283977.28768062,0.601394976081792,77,Longer,Ring,77,L,Ring
223,Temporal,4132,3,3,24,800,1.66666666666667,5,1,m,m,-800,-400,-800,0,=,L,S,0.262466839331546,0.300112230981335,1.69559755154832,1.69357872716283,1.68169592693082,283978.986325487,283979.260514727,283979.260514727,283981.660542143,2.4,283983.380848259,283983.380848259,283984.980364893,1.6,283986.83634759,283988.279861709,1.44351411814569,77,Shorter,Ring,66,=,Index
223,Temporal,4132,3,3,25,1200,3.33333333333333,7.5,1,l,l,-1600,-800,-1600,-400,S,=,L,0.348026316980839,0.220586555302953,1.7078813427987,1.80664658404107,1.31688983793867,283998.353153132,283998.720932873,283998.720932873,284001.120803096,2.4,284002.860823788,284002.860823788,284004.46068753,1.6,284006.40311454,284006.839827331,0.436712791561149,66,Shorter,Index,78,=,Middle
223,Temporal,4132,3,3,26,400,2.5,1.25,2,m,m,-800,0,-800,-400,=,L,S,0.318958127696602,0.348357874062349,1.37021107614059,1.19986225792512,1.97829830276677,284008.303202311,284008.641009827,284008.641009827,284011.840868886,3.2,284013.241009635,284013.241009635,284016.440984183,3.2,284017.786518674,284018.375673123,0.589154448884074,66,Equals to,Index,78,L,Middle
223,Temporal,4132,3,3,27,800,7.5,3.33333333333333,1,l,l,-1600,-400,-1600,-800,L,S,=,0.464328034782749,0.343638379713998,1.40723561217382,1.09862428915329,1.87668186551728,284020.519913152,284021.001195264,284021.001195264,284022.601115468,1.6,284024.041086692,284024.041086692,284026.441004072,2.4,284027.686632656,284028.415669774,0.729037118377164,66,Longer,Index,66,L,Index
223,Temporal,4132,3,3,28,400,2.5,5,2,m,m,-800,-400,-800,-400,=,L,S,0.402821411536971,0.331049970430353,1.14289783284599,1.69717601615612,1.02678514249418,284030.436662105,284030.851399262,284030.851399262,284032.451319466,1.6,284033.631357853,284033.631357853,284034.431345682,0.8,284036.286631917,284036.783835164,0.497203246806748,77,Shorter,Ring,77,S,Ring
223,Temporal,4132,3,3,29,800,3.75,3.33333333333333,1,l,l,-1600,-400,-1600,-800,L,S,=,0.32182781330287,0.407391803303712,1.13468084845208,1.36846366303679,1.57135998549068,284037.969999544,284038.311476075,284038.311476075,284041.511338342,3.2,284042.671487957,284042.671487957,284045.071355293,2.4,284046.58668748,284047.751794728,1.16510724736145,78,Shorter,Middle,78,S,Middle
223,Temporal,4132,3,3,30,1200,3.33333333333333,7.5,1,m,m,-800,0,-800,400,L,S,=,0.392978326894563,0.429746725710235,1.40942138908264,1.9152515939436,1.19642004836367,284049.470095464,284049.881763507,284049.881763507,284052.281361048,2.4,284053.731743906,284053.731743906,284055.331652882,1.6,284057.403440796,284058.183981322,0.780540525971446,78,Shorter,Middle,78,S,Middle
223,Temporal,4132,3,3,31,1600,5,5,2,m,m,-800,800,-800,800,L,S,=,0.296630722833378,0.452385083984919,1.71919307141614,1.99277399137113,1.24654126303698,284059.536828088,284059.851895222,284059.851895222,284063.051731183,3.2,284064.801717273,284064.801717273,284068.001600392,3.2,284070.136896387,284070.73603885,0.599142463586759,77,Equals to,Ring,66,L,Index
223,Temporal,4132,3,3,32,1200,20,7.5,1,r,r,0,1600,0,1200,S,=,L,0.448534937295549,0.305410073272041,1.04564110658325,1.8941249115223,1.55852658698895,284072.120194016,284072.581957528,284072.581957528,284073.38178656,0.8,284074.462134393,284074.462134393,284076.061961885,1.6,284078.103586696,284078.671844414,0.568257717066444,77,Longer,Ring,77,L,Ring
223,Temporal,4132,3,3,33,1600,15,20,2,m,m,-800,400,-800,800,=,L,S,0.38080843896574,0.436067892059915,1.48952948639373,1.2931415639471,1.9041298140269,284080.370289742,284080.762096923,284080.762096923,284081.561917293,0.8,284083.071948501,284083.071948501,284083.871835919,0.8,284085.303636421,284086.447998291,1.14436186978128,66,Equals to,Index,66,=,Index
223,Temporal,4132,3,3,34,400,10,5,2,r,r,0,800,0,400,=,L,S,0.287638098665404,0.418556814816794,1.1070400769938,1.26560717631473,1.81062747728101,284088.503645596,284088.801976161,284088.801976161,284089.601981954,0.8,284090.742114798,284090.742114798,284091.542017615,0.8,284092.953623236,284093.43969978,0.486076544679236,66,Equals to,Index,66,=,Index
223,Temporal,4132,3,3,35,1600,3.75,5,2,r,r,0,1200,0,1600,L,S,=,0.439694784117676,0.473815259729755,1.77183737555374,1.19142383634099,1.44806584148466,284095.437003438,284095.892127021,284095.892127021,284099.092055373,3.2,284100.89219471,284100.89219471,284104.092103173,3.2,284105.420433381,284107.159940408,1.7395070263301,77,Equals to,Ring,78,S,Middle
223,Temporal,4132,3,3,36,800,5,5,1,r,r,0,1200,0,800,S,=,L,0.482999988942602,0.30974260053946,1.75154914757279,1.35622496824739,1.99782885638216,284108.770416331,284109.272404938,284109.272404938,284111.672390329,2.4,284113.452430128,284113.452430128,284115.052307344,1.6,284116.553779916,284117.407897058,0.854117142793257,66,Shorter,Index,78,=,Middle
223,Temporal,4132,3,3,37,1200,10,5,1,l,l,-1600,0,-1600,-400,=,L,S,0.391738610882711,0.271526203000065,1.46361896557749,1.44082394204503,1.43764149209203,284119.553812317,284119.962436268,284119.962436268,284121.56254767,1.6,284123.052624341,284123.052624341,284125.452689933,2.4,284127.037213019,284127.527920374,0.490707355726045,78,Longer,Middle,78,L,Middle
223,Temporal,4132,3,3,38,800,1.66666666666667,5,1,m,m,-800,-400,-800,0,L,S,=,0.470883629090607,0.32854459554319,1.93569670181223,1.47797450105268,1.41606565049318,284129.120577935,284129.602487263,284129.602487263,284132.002544192,2.4,284133.972737867,284133.972737867,284135.572749499,1.6,284137.203910193,NaN,NaN,78,Shorter,Middle,999,Missed,Missed
223,Temporal,4132,3,3,39,800,5,5,1,l,l,-1600,-400,-1600,-800,S,=,L,0.427260910128757,0.483637787366999,1.33036616201596,1.22942854146968,1.59446825137384,284141.737275864,284142.182846279,284142.182846279,284144.582829745,2.4,284145.953115361,284145.953115361,284147.552963064,1.6,284148.937285744,284149.471915054,0.534629309899174,66,Shorter,Index,78,=,Middle
223,Temporal,4132,3,3,40,1200,5,5,1,l,l,-1600,0,-1600,-400,L,S,=,0.308819836477302,0.462110591397634,1.33314400069112,1.22817773694136,1.51826637216761,284151.254002167,284151.583008797,284151.583008797,284154.782923675,3.2,284156.153100861,284156.153100861,284158.553143034,2.4,284159.937345734,284161.087915832,1.1505700974958,78,Shorter,Middle,78,S,Middle
223,Temporal,4132,3,3,41,800,5,5,1,r,r,0,1200,0,800,=,L,S,0.332251953750811,0.236843763487346,1.19980700330238,1.3757525333286,1.66789120320837,284162.7707798,284163.123328496,284163.123328496,284165.523131671,2.4,284166.753466383,284166.753466383,284168.353057444,1.6,284169.870799786,284170.192042759,0.321242973441258,77,Shorter,Ring,78,L,Middle
223,Temporal,4132,3,3,42,800,2.5,3.33333333333333,1,l,l,-1600,-1200,-1600,-800,L,S,=,0.349058146598193,0.398525957148383,1.2441906967476,1.57787534839449,1.72310040463313,284172.020823589,284172.383463117,284172.383463117,284173.983348033,1.6,284175.263407079,284175.263407079,284177.663303929,2.4,284179.387476718,284180.039948531,0.652471812732983,66,Longer,Index,66,L,Index
223,Temporal,4132,3,3,43,1200,5,5,1,r,r,0,1600,0,1200,=,L,S,0.204337916512422,0.227294037895598,1.83332530827786,1.63203808065638,1.55593455348612,284181.904228958,284182.123516165,284182.123516165,284185.32346184,3.2,284187.183676835,284187.183676835,284189.583523319,2.4,284191.370932004,284192.34391788,0.972985875501763,77,Shorter,Ring,77,S,Ring
223,Temporal,4132,3,3,44,400,1.66666666666667,1.25,2,l,l,-1600,-1200,-1600,-1200,=,L,S,0.368910405611126,0.24112923342923,1.09531818728689,1.52929353846902,1.11650903837058,284194.054291274,284194.433617647,284194.433617647,284196.833635439,2.4,284197.963909391,284197.963909391,284201.163737653,3.2,284202.837603852,284203.335890447,0.498286595684476,78,Longer,Middle,78,L,Middle
223,Temporal,4132,3,3,45,800,7.5,3.33333333333333,1,m,m,-800,400,-800,0,S,=,L,0.260250061122073,0.346390878433536,1.02634096959168,1.0130987396641,1.5165638061192,284204.620987968,284204.89365853,284204.89365853,284206.493713471,1.6,284207.543965249,284207.543965249,284209.943836755,2.4,284211.1043734,284211.639953792,0.535580391762778,77,Longer,Ring,77,L,Ring
223,Temporal,4132,3,3,46,1200,10,5,1,l,l,-1600,0,-1600,-400,L,S,=,0.267416219354283,0.333416675300601,1.76579731975087,1.59680877415439,1.32557666062567,284213.304404357,284213.584039534,284213.584039534,284215.183988289,1.6,284216.98411287,284216.98411287,284219.383928877,2.4,284221.137708818,284221.56793884,0.430230021593161,66,Longer,Index,66,L,Index
223,Temporal,4132,3,3,47,1600,3.75,5,2,l,l,-1600,-400,-1600,0,=,L,S,0.489659696964436,0.416301008147175,1.20260526814306,1.827981841301,1.92777273701814,284223.054409971,284223.56406158,284223.56406158,284226.764167656,3.2,284227.984317542,284227.984317542,284231.183926695,3.2,284233.171114589,284233.815792192,0.644677603442688,66,Equals to,Index,78,L,Middle
223,Temporal,4132,3,3,48,1600,6.66666666666667,5,2,m,m,-800,800,-800,800,L,S,=,0.290543665694555,0.35552494031156,1.95894341558055,1.26620998798199,1.97994964937294,284235.921164794,284236.224138008,284236.224138008,284238.624070466,2.4,284240.614120511,284240.614120511,284243.814149595,3.2,284245.22118956,284245.783948407,0.562758847256191,66,Longer,Index,66,L,Index
223,Temporal,4132,3,3,49,800,5,5,1,m,m,-800,-400,-800,0,S,=,L,0.295616379588587,0.363935405122793,1.15447033332854,1.45029497091967,1.66930243401838,284252.537968219,284252.84456393,284252.84456393,284253.644407719,0.8,284254.824557104,284254.824557104,284256.424498801,1.6,284258.021271429,284258.472010653,0.450739224383142,77,Longer,Ring,77,L,Ring
223,Temporal,4132,3,3,50,800,2.5,3.33333333333333,1,m,m,-800,-400,-800,0,S,=,L,0.211268580094357,0.40871927275151,1.01449656530614,1.43002844056525,1.67343068861945,284260.288017462,284260.514667671,284260.514667671,284262.114635354,1.6,284263.154939378,284263.154939378,284265.554466342,2.4,284267.138033791,284267.72006579,0.582031999365427,77,Longer,Ring,77,L,Ring
223,Temporal,4132,3,3,51,800,1.25,3.33333333333333,1,m,m,-800,-400,-800,0,L,S,=,0.271348653547529,0.235622910126456,1.78861466021217,1.68455729243518,1.03552304961637,284269.538079216,284269.824701144,284269.824701144,284273.024717396,3.2,284274.844749675,284274.844749675,284277.244605782,2.4,284279.07145241,284280.015833191,0.944380780973006,78,Shorter,Middle,77,=,Ring
223,Temporal,4132,3,3,52,800,15,5,1,m,m,-800,400,-800,0,S,=,L,0.440513365164919,0.486776434186051,1.08533882168729,1.36501545685783,1.45604568053332,284281.204796249,284281.664936215,284281.664936215,284282.464832615,0.8,284283.584863996,284283.584863996,284285.184804731,1.6,284286.704761602,284287.167893093,0.46313149103662,77,Longer,Ring,77,L,Ring
223,Temporal,4132,3,3,53,1200,10,7.5,1,m,m,-800,0,-800,400,L,S,=,0.28392517803439,0.400352041440962,1.90107032842226,1.76008892565978,1.51133304485286,284288.771480111,284289.075071189,284289.075071189,284289.874915299,0.8,284291.805153706,284291.805153706,284293.40505402,1.6,284295.321539973,284295.79200375,0.470463777019177,66,Longer,Index,66,L,Index
223,Temporal,4132,3,3,54,400,5,5,2,m,m,-800,-400,-800,-400,S,=,L,0.412868599208482,0.231685570975174,1.35913368384003,1.43725362593322,1.12731384152396,284297.454914465,284297.885278857,284297.885278857,284298.685143819,0.8,284300.074942868,284300.074942868,284300.874951549,0.8,284302.454904199,284302.831818826,0.376914627442602,78,Equals to,Middle,78,=,Middle
223,Temporal,4132,3,3,55,800,5,5,1,r,r,0,400,0,800,S,=,L,0.471341640183528,0.311412683193969,1.11804408539396,1.97447981976525,1.50062286984131,284304.104962938,284304.595299049,284304.595299049,284305.395137063,0.8,284306.53527504,284306.53527504,284308.135175675,1.6,284310.254974535,284310.879977326,0.625002790708095,77,Longer,Ring,77,L,Ring
223,Temporal,4132,3,3,56,1200,10,7.5,1,l,l,-1600,-800,-1600,-400,=,L,S,0.257793091722973,0.411533591795771,1.54254901235293,1.28783044576007,1.9641255554721,284312.538281001,284312.815228498,284312.815228498,284313.615241991,0.8,284315.195306555,284315.195306555,284316.795349305,1.6,284318.221615585,284319.375810426,1.15419484110316,78,Longer,Middle,78,L,Middle
223,Temporal,4132,3,3,57,800,5,5,1,m,m,-800,-400,-800,0,L,S,=,0.484884641146868,0.255082946497243,1.67015799217559,1.91790662951109,1.88452762929694,284321.505009967,284322.005714404,284322.005714404,284322.805242844,0.8,284324.505457121,284324.505457121,284326.105501154,1.6,284328.171719942,284329.223827195,1.0521072531119,66,Longer,Index,78,S,Middle
223,Temporal,4132,3,3,58,400,2.5,5,2,r,r,0,400,0,400,=,L,S,0.314559880913855,0.428100051162843,1.52214346615024,1.47635188679469,1.35931821259386,284331.255061456,284331.585612748,284331.585612748,284333.185610265,1.6,284334.745774189,284334.745774189,284335.545641717,0.8,284337.155071593,284338.024132342,0.869060749013443,77,Shorter,Ring,77,S,Ring
223,Temporal,4132,3,3,59,1200,2.5,5,1,l,l,-1600,-800,-1600,-400,=,L,S,0.20885999210194,0.382707246847277,1.90287879655874,1.78802214337288,1.60004184595432,284339.5384568,284339.765841968,284339.765841968,284342.965729257,3.2,284344.905932742,284344.905932742,284347.305834403,2.4,284349.238538236,284351.080022495,1.84148425835883,77,Shorter,Ring,78,L,Middle
223,Temporal,4132,3,3,60,1600,20,20,2,l,l,-1600,0,-1600,0,L,S,=,0.454160609797734,0.25554354197277,1.93357384264677,1.07871773260817,1.35336388297769,284352.838516534,284353.306139531,284353.306139531,284354.105963751,0.8,284356.065921591,284356.065921591,284356.865811575,0.8,284358.10518782,284359.144046906,1.03885908634402,77,Equals to,Ring,77,=,Ring
223,Temporal,4132,3,3,61,800,3.75,3.33333333333333,1,r,r,0,1200,0,800,L,S,=,0.273736503552476,0.236147653538538,1.28978450717359,1.00375831810879,1.9514089014398,284360.655252526,284360.945965964,284360.945965964,284364.14603996,3.2,284365.456299002,284365.456299002,284367.856143239,2.4,284369.005318643,284370.648057254,1.64273861091351,78,Shorter,Middle,77,=,Ring
223,Temporal,4132,3,3,62,1200,5,5,1,r,r,0,800,0,1200,L,S,=,0.306780984757912,0.447938827495168,1.41865370868842,1.40033491138265,1.82744791402335,284372.755360765,284373.076442618,284373.076442618,284374.676313098,1.6,284376.126358472,284376.126358472,284378.526345146,2.4,284380.071984797,284381.928063324,1.85607852722751,66,Longer,Index,78,S,Middle
223,Temporal,4132,3,3,63,800,3.75,3.33333333333333,1,l,l,-1600,-400,-1600,-800,S,=,L,0.47431932092229,0.227314179869649,1.81099493486288,1.39036747940927,1.32678639926533,284383.922036414,284384.416302351,284384.416302351,284387.616354212,3.2,284389.466313804,284389.466313804,284391.866355335,2.4,284393.405460262,284394.199865199,0.79440493742004,66,Shorter,Index,66,S,Index
223,Temporal,4132,3,3,64,400,5,5,2,r,r,0,800,0,400,S,=,L,0.35630658316053,0.246232128992711,1.49944194589399,1.23476899352044,1.64918424873709,284395.688817093,284396.056784183,284396.056784183,284397.656347975,1.6,284399.186614421,284399.186614421,284399.986451152,0.8,284401.372109653,284401.776033897,0.403924244514201,66,Shorter,Index,66,S,Index
223,Temporal,4132,3,3,65,1200,10,7.5,1,l,l,-1600,-800,-1600,-400,S,=,L,0.408749950564498,0.32662720613952,1.03949774713748,1.26673411046493,1.85606091423346,284403.572155142,284403.996642119,284403.996642119,284404.796432013,0.8,284405.856774944,284405.856774944,284407.456683919,1.6,284408.872151357,284409.352002094,0.479850737203378,77,Longer,Ring,77,L,Ring
223,Temporal,4132,3,3,66,800,1.25,3.33333333333333,1,l,l,-1600,-1200,-1600,-800,L,S,=,0.412776998625631,0.301234269534627,1.88568605571889,1.86099983599706,1.98722629300372,284411.372025282,284411.797032279,284411.797032279,284414.9965885,3.2,284416.907030848,284416.907030848,284419.306619406,2.4,284421.322232295,284421.952110333,0.629878037434537,78,Shorter,Middle,77,=,Ring
223,Temporal,4132,3,3,67,1200,5,5,1,r,r,0,800,0,1200,S,=,L,0.247450691975016,0.203241145952675,1.87975174186963,1.2133343196363,1.39865990066224,284424.088993406,284424.346949736,284424.346949736,284425.946820857,1.6,284427.846990478,284427.846990478,284430.246848831,2.4,284431.605687053,284432.168042587,0.562355534581002,77,Longer,Ring,77,L,Ring
223,Temporal,4132,3,3,68,400,1.25,1.25,2,r,r,0,400,0,400,L,S,=,0.349035293188231,0.435912838477034,1.03555964858462,1.94947293946234,1.82189924484212,284433.722373641,284434.086999897,284434.086999897,284437.287026093,3.2,284438.357361691,284438.357361691,284441.556974053,3.2,284443.655691704,284444.255898429,0.600206724891905,77,Equals to,Ring,66,L,Index
223,Temporal,4132,3,3,69,1200,6.66666666666667,7.5,1,r,r,0,1600,0,1200,=,L,S,0.411817581547339,0.289968767181024,1.25233600750348,1.92879521236461,1.51430666432879,284446.222466353,284446.647173399,284446.647173399,284449.047162319,2.4,284450.327457476,284450.327457476,284451.927412326,1.6,284454.005821613,284454.639882253,0.634060639713425,77,Shorter,Ring,66,=,Index
223,Temporal,4132,3,3,70,1200,3.33333333333333,7.5,1,l,l,-1600,-800,-1600,-400,=,L,S,0.239676491265511,0.301096363179991,1.29832473972151,1.79291237196727,1.38810514494927,284456.305807866,284456.557636875,284456.557636875,284458.957503569,2.4,284460.287614169,284460.287614169,284461.887444227,1.6,284463.822494391,284464.391971798,0.569477406854276,77,Shorter,Ring,66,=,Index
223,Temporal,4132,3,3,71,1600,5,5,2,r,r,0,1200,0,1600,L,S,=,0.295010512920689,0.396567548673153,1.8790462426846,1.37791287047886,1.71529505949872,284465.922566379,284466.237629022,284466.237629022,284468.637528438,2.4,284470.547804289,284470.547804289,284473.747657894,3.2,284475.272610906,284475.743911015,0.471300108300056,66,Longer,Index,66,L,Index
223,Temporal,4132,3,3,72,1200,6.66666666666667,7.5,1,l,l,-1600,0,-1600,-400,=,L,S,0.233375174401637,0.406939904558645,1.9132605518786,1.46906637585884,1.9032381063051,284477.605930798,284477.857704308,284477.857704308,284480.25761848,2.4,284482.197807208,284482.197807208,284483.797613206,1.6,284485.405939524,284486.848030563,1.44209103978937,77,Shorter,Ring,77,S,Ring
223,Temporal,4132,3,3,73,800,15,5,1,m,m,-800,400,-800,0,S,=,L,0.316255288071104,0.313032594938538,1.49319504645897,1.81823547652157,1.65552082915944,284513.656141789,284513.988337513,284513.988337513,284514.788196701,0.8,284516.318271948,284516.318271948,284517.918265936,1.6,284519.889500979,284520.488047232,0.598546252935193,77,Longer,Ring,77,L,Ring
223,Temporal,4132,3,3,74,800,7.5,3.33333333333333,1,r,r,0,1200,0,800,S,=,L,0.249696479635337,0.234258763756784,1.18749664551123,1.25813712500887,1.63912223347631,284522.289570465,284522.558620455,284522.558620455,284524.158473611,1.6,284525.378386744,284525.378386744,284527.778255683,2.4,284529.172869376,284529.608146258,0.435276881151367,77,Longer,Ring,77,L,Ring
223,Temporal,4132,3,3,75,1200,10,7.5,1,m,m,-800,0,-800,400,L,S,=,0.339899067140309,0.329834883062322,1.93975087319541,1.9913478898096,1.16197908061474,284531.389562894,284531.74841022,284531.74841022,284532.548377517,0.8,284534.508677333,284534.508677333,284536.108505145,1.6,284538.239653842,284539.04008038,0.800426538335159,66,Longer,Index,66,L,Index
223,Temporal,4132,3,3,76,1600,20,20,2,r,r,0,1600,0,1600,S,=,L,0.426627059931861,0.439681683593622,1.14982358784628,1.10584679947302,1.44234393999864,284540.339672384,284540.778807829,284540.778807829,284541.578653542,0.8,284542.758778546,284542.758778546,284543.558716329,0.8,284544.806294203,284545.360120314,0.553826111136004,78,Equals to,Middle,78,=,Middle
223,Temporal,4132,3,3,77,800,3.75,3.33333333333333,1,r,r,0,1200,0,800,S,=,L,0.442887332631339,0.480626349589082,1.31703167407626,1.62447549100683,1.26470861665627,284546.956336901,284547.418774132,284547.418774132,284550.618618113,3.2,284551.968895619,284551.968895619,284554.368789902,2.4,284556.139769587,284556.496109632,0.356340045051184,66,Shorter,Index,78,=,Middle
223,Temporal,4132,3,3,78,400,2.5,1.25,2,m,m,-800,0,-800,-400,L,S,=,0.420032961663536,0.481980478715705,1.48666492008463,1.85972691999136,1.71787836637577,284557.92311078,284558.35885695,284558.35885695,284561.558766695,3.2,284563.079041758,284563.079041758,284566.278895363,3.2,284568.273102728,284568.7760108,0.502908071619459,77,Equals to,Ring,66,L,Index
223,Temporal,4132,3,3,79,400,5,5,2,r,r,0,400,0,400,S,=,L,0.466693846473271,0.384804882310121,1.72727222862179,1.21818938985743,1.21452934572251,284570.639828037,284571.119217095,284571.119217095,284571.919169957,0.8,284573.679262919,284573.679262919,284574.47918787,0.8,284575.839882397,284576.456413894,0.616531496518292,78,Equals to,Middle,78,=,Middle
223,Temporal,4132,3,3,80,1200,10,5,1,l,l,-1600,0,-1600,-400,=,L,S,0.276227853470228,0.32980957940801,1.194577064593,1.20122944935965,1.06295551712305,284577.823211384,284578.119374609,284578.119374609,284579.71925792,1.6,284580.949452763,284580.949452763,284583.349067306,2.4,284584.689869004,284585.296119641,0.606250637560152,78,Longer,Middle,78,L,Middle
223,Temporal,4132,3,3,81,800,1.25,3.33333333333333,1,m,m,-800,-400,-800,0,L,S,=,0.290810921535362,0.325082523976579,1.89468745337138,1.29697202645746,1.71570312303561,284586.52326361,284586.829431051,284586.829431051,284590.029096666,3.2,284591.949522698,284591.949522698,284594.349435908,2.4,284595.789940992,284596.416059869,0.626118877728004,78,Shorter,Middle,78,S,Middle
223,Temporal,4132,3,3,82,1200,2.5,5,1,m,m,-800,0,-800,400,=,L,S,0.465263663169924,0.374461784475851,1.01082852037965,1.84774874875637,1.50584431329939,284598.290025363,284598.76961428,284598.76961428,284601.969512156,3.2,284603.019772596,284603.019772596,284605.419577054,2.4,284607.423335662,284608.440308342,1.01697267987765,77,Shorter,Ring,78,L,Middle
223,Temporal,4132,3,3,83,800,1.25,3.33333333333333,1,m,m,-800,-400,-800,0,S,=,L,0.261202052337905,0.396720805488415,1.85287056130523,1.55194776662554,1.87988887304641,284610.106757505,284610.379838373,284610.379838373,284613.579469663,3.2,284615.459931445,284615.459931445,284617.859809687,2.4,284619.556808112,284620.008013317,0.451205205288716,66,Shorter,Index,66,S,Index
223,Temporal,4132,3,3,84,1600,7.5,20,2,l,l,-1600,-400,-1600,0,=,L,S,0.481663320368917,0.333959237581182,1.9442023241722,1.29160647285697,1.0577744633453,284622.056784869,284622.549912601,284622.549912601,284624.14978308,1.6,284626.120165386,284626.120165386,284626.919678749,0.8,284628.356798407,284628.840292815,0.483494408079423,77,Shorter,Ring,77,S,Ring
223,Temporal,4132,3,3,85,800,5,5,1,l,l,-1600,-400,-1600,-800,S,=,L,0.271885107851875,0.316795957372876,1.20019590709821,1.13029571699171,1.55800521347406,284630.040215759,284630.33007458,284630.33007458,284632.729971429,2.4,284633.960047575,284633.960047575,284635.55993634,1.6,284636.840243701,284638.231995139,1.3917514384375,66,Shorter,Index,66,S,Index
223,Temporal,4132,3,3,86,1200,5,5,1,l,l,-1600,-800,-1600,-400,S,=,L,0.243825929830339,0.229181731466837,1.99188642840064,1.92626769479934,1.99081047375749,284639.956935839,284640.220109695,284640.220109695,284641.81992628,1.6,284643.850132094,284643.850132094,284646.250153735,2.4,284648.323576456,284648.744155466,0.420579009398352,77,Longer,Ring,77,L,Ring
223,Temporal,4132,3,3,87,1600,6.66666666666667,5,2,m,m,-800,800,-800,800,=,L,S,0.46206477009145,0.345374067248755,1.3580690291525,1.68190305700317,1.61134712796879,284650.89027976,284651.37049886,284651.37049886,284653.770051168,2.4,284655.160329175,284655.160329175,284658.360246299,3.2,284660.190383121,284660.704050384,0.513667262508534,78,Longer,Middle,78,L,Middle
223,Temporal,4132,3,3,88,800,2.5,3.33333333333333,1,l,l,-1600,-1200,-1600,-800,=,L,S,0.309738270990742,0.206627355662339,1.22573391689505,1.54193517348068,1.37467978284423,284662.473726624,284662.800319859,284662.800319859,284664.400274068,1.6,284665.660633616,284665.660633616,284668.060545223,2.4,284669.740382191,284670.191982127,0.451599936641287,78,Longer,Middle,78,L,Middle
223,Temporal,4132,3,3,89,400,3.33333333333333,1.25,2,r,r,0,800,0,400,S,=,L,0.446000912282798,0.411017545727727,1.34574837440709,1.37290380913963,1.07916265707223,284671.723750524,284672.180740533,284672.180740533,284674.580634175,2.4,284675.950846007,284675.950846007,284679.150436233,3.2,284680.673785908,284681.176274691,0.50248878315324,77,Longer,Ring,77,L,Ring
223,Temporal,4132,3,3,90,1200,20,7.5,1,m,m,-800,800,-800,400,=,L,S,0.308890887608148,0.386006712658003,1.91304405050382,1.99382928226426,1.87474515912515,284682.390502203,284682.710661751,284682.710661751,284683.510635464,0.8,284685.450661545,284685.450661545,284687.050728035,1.6,284689.207154466,284689.776160293,0.569005827710498,78,Longer,Middle,66,=,Index
223,Temporal,4132,3,3,91,800,7.5,3.33333333333333,1,m,m,-800,400,-800,0,=,L,S,0.498262233119217,0.261200671501729,1.44199141910662,1.92681092981812,1.3154425074484,284691.790585483,284692.300698726,284692.300698726,284693.900679882,1.6,284695.381082123,284695.381082123,284697.780681589,2.4,284699.857278344,284700.352187839,0.494909495057072,78,Longer,Middle,78,L,Middle
223,Temporal,4132,3,3,92,800,1.66666666666667,5,1,m,m,-800,-400,-800,0,L,S,=,0.313908895338004,0.437116865944384,1.99205249977135,1.82201198443507,1.42364870357704,284701.823978101,284702.151006985,284702.151006985,284704.550908646,2.4,284706.580909147,284706.580909147,284708.180915005,1.6,284710.14061304,284711.863991113,1.72337807243457,78,Shorter,Middle,66,L,Index
223,Temporal,4132,3,3,93,800,2.5,3.33333333333333,1,l,l,-1600,-1200,-1600,-800,L,S,=,0.48058015842135,0.401692643177404,1.12682992765731,1.12165440092026,1.55435911346876,284713.440713515,284713.941165481,284713.941165481,284715.541157544,1.6,284716.700994378,284716.700994378,284719.101011528,2.4,284720.374075176,284721.023996002,0.649920825788286,66,Longer,Index,66,L,Index
223,Temporal,4132,3,3,94,800,1.66666666666667,5,1,r,r,0,400,0,800,=,L,S,0.313535660763781,0.226495544420866,1.95139215192176,1.14886590829785,1.86094518426481,284722.724090574,284723.051408501,284723.051408501,284725.4513092,2.4,284727.441146233,284727.441146233,284729.041202456,1.6,284730.340732314,284731.000041704,0.659309389942791,77,Shorter,Ring,66,=,Index
223,Temporal,4132,3,3,95,800,5,5,1,r,r,0,400,0,800,=,L,S,0.245128043707432,0.440793994708884,1.34377277665251,1.60872361428044,1.32360095754555,284733.007497467,284733.271468517,284733.271468517,284734.071372616,0.8,284735.451466759,284735.451466759,284737.051335955,1.6,284738.807511984,284739.600299116,0.79278713214444,78,Longer,Middle,78,L,Middle
223,Temporal,4132,3,3,96,400,1.66666666666667,1.25,2,l,l,-1600,-1200,-1600,-1200,=,L,S,0.227020478697922,0.314596790609032,1.45582307488509,1.24254851704282,1.8155205462977,284741.090872024,284741.331384415,284741.331384415,284743.73143557,2.4,284745.211858343,284745.211858343,284748.411684038,3.2,284749.790851107,284750.248206556,0.457355448161252,78,Longer,Middle,78,L,Middle
