Subject,Task,SequenceOrder,ListNo,RunNo,TrialNo,Aud_Probe_Dist,Aud_Standard_Vel,Aud_Probe_Vel,Main_Control,Aud_Std_StartCode,Aud_Probe_StartCode,Aud_Std_StartPt,Aud_Std_EndPt,Aud_Probe_StartPt,Aud_Probe_EndPt,RespIndex,RespMiddle,RespRing,ISI_Cross_Std,ISI_Cross_Probe,ISI_Std_Probe,ISI_Probe_Response,ITI,TrialOnset,StdOnset,StdOnsetByStop,StdOffset,StdDur,ProbeOnset,ProbeOnsetByStop,ProbeOffset,ProbeDur,RespWinStart,RespTime,RT,CorrectKC,CorrectResponse,CorrectFinger,SubjRespKC,SubjResponse,SubjRespFinger
221,Temporal,2314,3,2,1,1200,20,7.5,1,m,m,-800,800,-800,400,S,=,L,0.247918768427917,0.208618654185274,1.49569726767562,1.10968289966577,1.73779164406289,272041.430289691,272041.689109299,272041.689109299,272042.489855825,0.8,272044.020180657,272044.020180657,272045.619881432,1.6,272046.86363964,272047.234023571,0.370383931440301,77,Longer,Ring,77,L,Ring
221,Temporal,2314,3,2,2,1200,2.5,5,1,l,l,-1600,-800,-1600,-400,L,S,=,0.411761557491982,0.28038501827693,1.90708604222047,1.24478192611115,1.13320649941547,272049.113690681,272049.540125568,272049.540125568,272052.740141499,3.2,272054.690175966,272054.690175966,272057.090095593,2.4,272058.497010765,272058.770138837,0.273128071276005,78,Shorter,Middle,78,S,Middle
221,Temporal,2314,3,2,3,400,5,5,2,m,m,-800,0,-800,-400,S,=,L,0.463806804548812,0.346199486598627,1.99725786932284,1.50851187987056,1.05700551352998,272060.063738256,272060.540261268,272060.540261268,272062.140215797,1.6,272064.180421014,272064.180421014,272064.980310678,0.8,272066.630392283,272066.977918225,0.347525941673666,66,Shorter,Index,66,S,Index
221,Temporal,2314,3,2,4,800,1.25,3.33333333333333,1,m,m,-800,-400,-800,0,S,=,L,0.229465929394889,0.464910534472251,1.73007746899118,1.146917600062,1.78546575189316,272068.180420097,272068.42059725,272068.42059725,272071.620257412,3.2,272073.380777361,272073.380777361,272075.780627053,2.4,272077.080455898,272077.562070406,0.481614507443737,66,Shorter,Index,78,=,Middle
221,Temporal,2314,3,2,5,1200,2.5,5,1,r,r,0,800,0,1200,=,L,S,0.359752071651254,0.376867455048992,1.9605942924042,1.96908707354733,1.22466075710773,272079.497214796,272079.870532224,272079.870532224,272083.070395132,3.2,272085.060910982,272085.060910982,272087.460458157,2.4,272089.580530004,272089.922125276,0.34159527218435,77,Shorter,Ring,66,=,Index
221,Temporal,2314,3,2,6,800,5,5,1,r,r,0,400,0,800,S,=,L,0.296881038858233,0.203178456703104,1.33675918418918,1.82822752127366,1.86746480695569,272091.297294866,272091.610757863,272091.610757863,272092.410652018,0.8,272093.780932181,272093.780932181,272095.380807472,1.6,272097.363913799,272097.762009389,0.398095590062439,77,Longer,Ring,77,L,Ring
221,Temporal,2314,3,2,7,800,3.75,3.33333333333333,1,r,r,0,1200,0,800,L,S,=,0.284850012898485,0.333765221991522,1.89922414837642,1.4589050584556,1.83557105170366,272099.797357617,272100.101035954,272100.101035954,272103.300885709,3.2,272105.231145289,272105.231145289,272107.63102257,2.4,272109.230649374,272109.570108425,0.339459050563164,78,Shorter,Middle,78,S,Middle
221,Temporal,2314,3,2,8,800,5,5,1,r,r,0,1200,0,800,=,L,S,0.434035373763976,0.444314918753197,1.44602294682991,1.90128129743811,1.15890907172172,272111.564085043,272112.011092331,272112.011092331,272114.410993672,2.4,272115.891044635,272115.891044635,272117.491048888,1.6,272119.547376384,272120.002147129,0.45477074518567,77,Shorter,Ring,77,S,Ring
221,Temporal,2314,3,2,9,800,2.5,3.33333333333333,1,l,l,-1600,-1200,-1600,-800,L,S,=,0.4923472857951,0.398536921649958,1.13692605400554,1.45257275317699,1.5825082180262,272121.314132362,272121.821342345,272121.821342345,272123.421218599,1.6,272124.581357308,272124.581357308,272126.981216302,2.4,272128.580824179,272128.913939046,0.333114867098629,66,Longer,Index,66,L,Index
221,Temporal,2314,3,2,10,400,2.5,1.25,2,m,m,-800,0,-800,-400,L,S,=,0.449566083542888,0.329350784687614,1.17531887397815,1.54040900327474,1.40337349854248,272130.647528893,272131.111634936,272131.111634936,272134.311186666,3.2,272135.521249569,272135.521249569,272138.721311696,3.2,272140.397532903,272140.730170417,0.332637513463851,77,Equals to,Ring,66,L,Index
221,Temporal,2314,3,2,11,400,2.5,5,2,r,r,0,400,0,400,=,L,S,0.256496322833505,0.411935412974757,1.28366665699617,1.65209635870255,1.08834841842258,272142.28092998,272142.551514045,272142.551514045,272144.151390299,1.6,272145.461743014,272145.461743014,272146.261606693,0.8,272148.0642278,272148.434199307,0.369971506355796,77,Shorter,Ring,77,S,Ring
221,Temporal,2314,3,2,12,1200,20,7.5,1,l,l,-1600,0,-1600,-400,S,=,L,0.230022490971084,0.314008697674026,1.32198648329403,1.88108491356,1.21409836189425,272149.664306846,272149.911787702,272149.911787702,272150.711696614,0.8,272152.071918987,272152.071918987,272153.671707983,1.6,272155.697597769,272156.313976452,0.616378682549112,77,Longer,Ring,78,=,Middle
221,Temporal,2314,3,2,13,800,2.5,3.33333333333333,1,m,m,-800,-400,-800,0,L,S,=,0.354543833861195,0.443299151006739,1.16764882144883,1.94369461508179,1.84116640584708,272157.697647494,272158.07178425,272158.07178425,272159.671615913,1.6,272160.861682896,272160.861682896,272163.261688497,2.4,272165.364337579,272165.682188679,0.317851100349799,66,Longer,Index,66,L,Index
221,Temporal,2314,3,2,14,400,1.66666666666667,1.25,2,l,l,-1600,-1200,-1600,-1200,=,L,S,0.352250158795933,0.24100854887449,1.02238038846709,1.24506926312962,1.1528426287514,272167.664374924,272168.032088512,272168.032088512,272170.431918314,2.4,272171.482001992,272171.482001992,272174.68183282,3.2,272176.081046495,272176.490159394,0.409112898632884,78,Longer,Middle,78,L,Middle
221,Temporal,2314,3,2,15,1600,3.75,5,2,r,r,0,1200,0,1600,S,=,L,0.455366319999843,0.238768679167853,1.82802067543725,1.07664202647324,1.25167904471876,272177.797815081,272178.272145409,272178.272145409,272181.47204906,3.2,272183.322063509,272183.322063509,272186.522149695,3.2,272187.747788871,272188.098130493,0.35034162219381,78,Equals to,Middle,78,=,Middle
221,Temporal,2314,3,2,16,800,15,5,1,l,l,-1600,-400,-1600,-800,L,S,=,0.282515399839627,0.388783566474988,1.54581076858088,1.66423561712901,1.06063631378283,272189.497830094,272189.792295635,272189.792295635,272190.592118892,0.8,272192.172203346,272192.172203346,272193.772205354,1.6,272195.581165513,272195.954138123,0.372972610581201,66,Longer,Index,66,L,Index
221,Temporal,2314,3,2,17,1200,20,7.5,1,r,r,0,1600,0,1200,=,L,S,0.36273442313836,0.230809091835747,1.73634195104943,1.54743455101008,1.05759364176208,272197.164581773,272197.542290341,272197.542290341,272198.342131564,0.8,272200.112195378,272200.112195378,272201.712196103,1.6,272203.414615356,272203.914043949,0.499428593029734,78,Longer,Middle,78,L,Middle
221,Temporal,2314,3,2,18,800,15,5,1,l,l,-1600,-400,-1600,-800,=,L,S,0.255479823763017,0.457964120755123,1.53025819506778,1.20232249253962,1.72097021911111,272205.114632556,272205.382625823,272205.382625823,272206.182496559,0.8,272207.742735551,272207.742735551,272209.34226598,1.6,272210.697957388,272211.226169693,0.528212304343469,78,Longer,Middle,78,L,Middle
221,Temporal,2314,3,2,19,1200,5,5,1,m,m,-800,800,-800,400,S,=,L,0.270038281130397,0.496756001753198,1.67444792056869,1.04942154099365,1.60672898012728,272213.098014042,272213.382666245,272213.382666245,272216.582603579,3.2,272218.282768131,272218.282768131,272220.682498484,2.4,272221.881392122,272222.234010739,0.352618617645931,66,Shorter,Index,66,S,Index
221,Temporal,2314,3,2,20,800,7.5,3.33333333333333,1,m,m,-800,400,-800,0,S,=,L,0.285959374823593,0.242852744194431,1.98533287137253,1.30470789788184,1.33839717080075,272224.01475337,272224.31268197,272224.31268197,272225.912555016,1.6,272227.932783883,272227.932783883,272230.33268009,2.4,272231.78138584,272232.154008455,0.372622615366708,77,Longer,Ring,77,L,Ring
221,Temporal,2314,3,2,21,800,3.75,3.33333333333333,1,l,l,-1600,-400,-1600,-800,S,=,L,0.467362828731169,0.225281630530226,1.44575512765796,1.10992593517508,1.24511071244256,272233.648140021,272234.132984641,272234.132984641,272237.332826697,3.2,272238.812736507,272238.812736507,272241.212736654,2.4,272242.481516673,272242.866004146,0.384487473522313,66,Shorter,Index,78,=,Middle
221,Temporal,2314,3,2,22,800,15,5,1,m,m,-800,400,-800,0,S,=,L,0.210440125736348,0.261142027889262,1.03365514224825,1.78289068845915,1.25011284406347,272244.248215859,272244.472909496,272244.472909496,272245.272749435,0.8,272246.333187323,272246.333187323,272247.932812068,1.6,272249.864824557,272250.25006817,0.385243613971397,77,Longer,Ring,77,L,Ring
221,Temporal,2314,3,2,23,800,2.5,3.33333333333333,1,l,l,-1600,-1200,-1600,-800,=,L,S,0.231865948503149,0.373624324767862,1.44909606378286,1.7943864506896,1.30787181691872,272251.648200653,272251.893101618,272251.893101618,272253.493016047,1.6,272254.983439827,272254.983439827,272257.383012666,2.4,272259.331546786,272259.762191926,0.430645139538683,78,Longer,Middle,78,L,Middle
221,Temporal,2314,3,2,24,1200,2.5,5,1,r,r,0,800,0,1200,L,S,=,0.200223891307328,0.341342820232708,1.63635707087598,1.53332226814097,1.82582491668595,272261.214935201,272261.433509858,272261.433509858,272264.633053889,3.2,272266.303284392,272266.303284392,272268.703197923,2.4,272270.381621758,272270.810066194,0.428444436751306,78,Shorter,Middle,77,=,Ring
221,Temporal,2314,3,2,25,1200,6.66666666666667,7.5,1,r,r,0,1600,0,1200,L,S,=,0.475558975434478,0.271326907194163,1.81637775520671,1.79304333341861,1.52784121021775,272272.931665611,272273.423491848,272273.423491848,272275.823402171,2.4,272277.663740906,272277.663740906,272279.263265882,1.6,272281.198345559,272281.666273363,0.467927804100327,78,Shorter,Middle,78,S,Middle
221,Temporal,2314,3,2,26,800,3.75,3.33333333333333,1,r,r,0,1200,0,800,L,S,=,0.215009936998311,0.262989575808067,1.73244090367661,1.28741428661995,1.20638351764286,272283.348390824,272283.573598707,272283.573598707,272286.773686498,3.2,272288.533626437,272288.533626437,272290.933538364,2.4,272292.365121619,272292.810031548,0.444909928366542,78,Shorter,Middle,77,=,Ring
221,Temporal,2314,3,2,27,400,10,5,2,r,r,0,800,0,400,=,L,S,0.427098405587279,0.358554508368501,1.1429260831847,1.80008582175128,1.04416289176609,272294.181836069,272294.623656035,272294.623656035,272295.423503673,0.8,272296.593816301,272296.593816301,272297.393714626,0.8,272299.34851792,272299.738245328,0.389727407426108,66,Equals to,Index,66,=,Index
221,Temporal,2314,3,2,28,800,7.5,3.33333333333333,1,m,m,-800,400,-800,0,L,S,=,0.221142461694498,0.323487533738815,1.7121525120093,1.24214131689008,1.53209658373216,272300.931875095,272301.163771382,272301.163771382,272302.763668488,1.6,272304.513902558,272304.513902558,272306.913768931,2.4,272308.29852277,272308.706208099,0.407685328973457,66,Longer,Index,66,L,Index
221,Temporal,2314,3,2,29,400,5,5,2,r,r,0,800,0,400,=,L,S,0.294381402214051,0.442615493242868,1.20906673972941,1.57744144071176,1.56731552348232,272310.398554016,272310.703921377,272310.703921377,272312.303812066,1.6,272313.544049941,272313.544049941,272314.343910412,0.8,272316.081954744,272316.546323832,0.464369087480009,77,Shorter,Ring,77,S,Ring
221,Temporal,2314,3,2,30,1600,7.5,20,2,l,l,-1600,-400,-1600,0,=,L,S,0.306605669876541,0.461548180720038,1.81643857670597,1.39211046769523,1.38750492269672,272318.265274514,272318.584300026,272318.584300026,272320.184166335,1.6,272322.034106357,272322.034106357,272322.834042858,0.8,272324.365278171,272324.770242777,0.404964605928399,77,Shorter,Ring,77,S,Ring
221,Temporal,2314,3,2,31,1200,5,5,1,l,l,-1600,-800,-1600,-400,L,S,=,0.319665951120856,0.274762800797387,1.99091262845929,1.74821486072437,1.81060077415776,272326.298703382,272326.634461614,272326.634461614,272328.233995892,1.6,272330.254227646,272330.254227646,272332.654167483,2.4,272334.548739307,272334.906200977,0.357461670588236,66,Longer,Index,66,L,Index
221,Temporal,2314,3,2,32,1200,3.33333333333333,7.5,1,m,m,-800,0,-800,400,S,=,L,0.352738629472397,0.306382129730226,1.56616154954885,1.93775347111847,1.70745070447347,272336.865423494,272337.234290113,272337.234290113,272339.634136596,2.4,272341.234381542,272341.234381542,272342.834261324,1.6,272344.915393563,272345.370322464,0.454928900639061,66,Shorter,Index,66,S,Index
221,Temporal,2314,3,2,33,800,1.66666666666667,5,1,m,m,-800,-400,-800,0,=,L,S,0.393941696773965,0.286143058281193,1.42660611289561,1.70104202236741,1.54006431231569,272347.232159711,272347.644566882,272347.644566882,272350.044394438,2.4,272351.504645491,272351.504645491,272353.104542597,1.6,272354.948770782,NaN,NaN,77,Shorter,Ring,999,Missed,Missed
221,Temporal,2314,3,2,34,1600,3.75,5,2,l,l,-1600,-400,-1600,0,L,S,=,0.377775613789674,0.423733704156492,1.10129064354964,1.673543232672,1.80429879836189,272359.615562562,272360.004894434,272360.004894434,272363.204771457,3.2,272364.33485774,272364.33485774,272367.534763636,3.2,272369.348874273,272369.770255288,0.421381014806684,77,Equals to,Ring,77,=,Ring
221,Temporal,2314,3,2,35,1200,10,5,1,l,l,-1600,0,-1600,-400,L,S,=,0.474930209424351,0.268411375202167,1.14193542818411,1.56331795317543,1.0086860978632,272371.715640966,272372.205065678,272372.205065678,272373.80492525,1.6,272374.975092875,272374.975092875,272377.37494802,2.4,272379.082331959,272379.418314146,0.335982187010814,66,Longer,Index,66,L,Index
221,Temporal,2314,3,2,36,1600,10,20,2,m,m,-800,800,-800,800,L,S,=,0.328959056554341,0.289125587060608,1.51373694422266,1.3065403316935,1.87224663583796,272380.565692262,272380.905156721,272380.905156721,272382.505008594,1.6,272384.044996628,272384.044996628,272384.84490169,0.8,272386.298973818,272386.71425478,0.415280961722601,78,Shorter,Middle,78,S,Middle
221,Temporal,2314,3,2,37,400,2.5,1.25,2,m,m,-800,0,-800,-400,=,L,S,0.34558396155807,0.203665388449869,1.98487836928553,1.68441456880602,1.24912367906786,272388.749022997,272389.105166281,272389.105166281,272392.305110032,3.2,272394.315063926,272394.315063926,272397.515061572,3.2,272399.349128086,272399.818195642,0.469067555852234,66,Equals to,Index,66,=,Index
221,Temporal,2314,3,2,38,800,5,5,1,l,l,-1600,-400,-1600,-800,=,L,S,0.373001585909026,0.367433115108365,1.23189585945988,1.69372033885596,1.19461158681486,272401.215768324,272401.605211194,272401.605211194,272404.005094249,2.4,272405.265314569,272405.265314569,272406.865200768,1.6,272408.715776665,272409.026078328,0.310301663063001,77,Shorter,Ring,66,=,Index
221,Temporal,2314,3,2,39,1200,10,7.5,1,l,l,-1600,-800,-1600,-400,S,=,L,0.362617983666143,0.466650131566657,1.63871508110706,1.71098978494496,1.63128391080355,272410.365873259,272410.745647151,272410.745647151,272411.545476504,0.8,272413.215467688,272413.215467688,272414.815303841,1.6,272416.682561782,272417.034282844,0.351721061801072,77,Longer,Ring,77,L,Ring
221,Temporal,2314,3,2,40,400,10,5,2,r,r,0,800,0,400,=,L,S,0.433532227728276,0.343459744644958,1.94401735310803,1.88829427002759,1.0642644108893,272418.815870147,272419.265436795,272419.265436795,272420.065305927,0.8,272422.045580168,272422.045580168,272422.845416898,0.8,272424.882542139,272425.218098631,0.335556492267642,66,Equals to,Index,66,=,Index
221,Temporal,2314,3,2,41,800,5,5,1,r,r,0,1200,0,800,=,L,S,0.242815013162553,0.33366777878684,1.96985671293706,1.85858104111628,1.12788987226789,272426.432580218,272426.685879463,272426.685879463,272429.085452302,2.4,272431.08570963,272431.08570963,272432.685554125,1.6,272434.682660812,272435.058095667,0.375434854591731,77,Shorter,Ring,66,=,Index
221,Temporal,2314,3,2,42,800,15,5,1,m,m,-800,400,-800,0,=,L,S,0.339813401890758,0.314596005428819,1.96510699573073,1.32888112524322,1.10409329245408,272436.332687238,272436.685985007,272436.685985007,272437.485799923,0.8,272439.475823342,272439.475823342,272441.075768568,1.6,272442.565980663,272442.994245451,0.428264787537046,78,Longer,Middle,78,L,Middle
221,Temporal,2314,3,2,43,1600,5,5,2,r,r,0,1200,0,1600,=,L,S,0.23315814263243,0.302333575459861,1.16945942055011,1.47156578738238,1.18669670235609,272444.249372992,272444.495907161,272444.495907161,272446.895893835,2.4,272448.096078598,272448.096078598,272451.295985777,3.2,272452.916017844,272453.282453148,0.36643530416768,78,Longer,Middle,78,L,Middle
221,Temporal,2314,3,2,44,1600,15,20,2,m,m,-800,400,-800,800,S,=,L,0.260638042519972,0.206141245460793,1.74370113344684,1.03831047529391,1.70262221364725,272454.616084828,272454.896124537,272454.896124537,272455.695941057,0.8,272457.476092816,272457.476092816,272458.27609893,0.8,272459.466085117,272459.826260287,0.360175170819275,78,Equals to,Middle,78,=,Middle
221,Temporal,2314,3,2,45,1200,5,5,1,r,r,0,800,0,1200,S,=,L,0.334414305168851,0.247678453100217,1.49475605931765,1.76493737167302,1.53499031963385,272461.682842153,272462.036192855,272462.036192855,272463.636155725,1.6,272465.156156181,272465.156156181,272467.556034103,2.4,272469.466207478,272470.018273853,0.552066375152208,77,Longer,Ring,77,L,Ring
221,Temporal,2314,3,2,46,400,2.5,5,2,m,m,-800,-400,-800,-400,S,=,L,0.250033554692389,0.402757246427547,1.59999258601853,1.07782672012156,1.91973109260397,272471.699521299,272471.966367057,272471.966367057,272473.566245877,1.6,272475.196255167,272475.196255167,272475.996211878,0.8,272477.232490458,272477.682346193,0.449855735292658,66,Shorter,Index,66,S,Index
221,Temporal,2314,3,2,47,800,1.66666666666667,5,1,m,m,-800,-400,-800,0,S,=,L,0.313883980163433,0.329173612182062,1.18010447456372,1.25409803660564,1.46107054784436,272479.766280228,272480.096356092,272480.096356092,272482.496181723,2.4,272483.706436465,272483.706436465,272485.306469912,1.6,272486.699638674,272487.314326447,0.614687773224432,66,Shorter,Index,66,S,Index
221,Temporal,2314,3,2,48,400,5,5,2,m,m,-800,-400,-800,-400,=,L,S,0.306521119262121,0.265928246781505,1.75689700225301,1.33100687467581,1.22265530800201,272488.916335118,272489.236604059,272489.236604059,272490.036443998,0.8,272491.826400433,272491.826400433,272492.626389866,0.8,272494.099625111,272494.53832046,0.438695348973852,66,Equals to,Index,66,=,Index
221,Temporal,2314,3,2,49,800,5,5,1,m,m,-800,-400,-800,0,=,L,S,0.20787817334591,0.244130684083685,1.99319132079278,1.902324823091,1.97897804494177,272496.01637278,272496.236671748,272496.236671748,272497.036523878,0.8,272499.056740554,272499.056740554,272500.656638943,1.6,272502.699682663,272503.066171861,0.366489198931959,78,Longer,Middle,78,L,Middle
221,Temporal,2314,3,2,50,1200,3.33333333333333,7.5,1,l,l,-1600,-800,-1600,-400,=,L,S,0.491297028926048,0.413720246369708,1.87609378619392,1.82145031489499,1.94007601853006,272505.199734312,272505.706898741,272505.706898741,272508.10676319,2.4,272510.007090324,272510.007090324,272511.606941556,1.6,272513.566457055,272513.970144226,0.40368717169622,77,Shorter,Ring,77,S,Ring
221,Temporal,2314,3,2,51,800,5,5,1,r,r,0,400,0,800,L,S,=,0.408696099616589,0.212610315848419,1.61065931901198,1.6989522672997,1.34539849509076,272516.049835332,272516.477129328,272516.477129328,272517.276976966,0.8,272518.927029013,272518.927029013,272520.526927081,1.6,272522.383185726,272522.738313338,0.355127611313947,66,Longer,Index,66,L,Index
221,Temporal,2314,3,2,52,1200,10,7.5,1,m,m,-800,0,-800,400,S,=,L,0.370512546842312,0.38112951085254,1.8650781416321,1.14531346036822,1.43605102063583,272524.233184674,272524.617232613,272524.617232613,272525.417093404,0.8,272527.317149782,272527.317149782,272528.917026357,1.6,272530.216517718,272530.91413249,0.697614771779627,77,Longer,Ring,77,L,Ring
221,Temporal,2314,3,2,53,1200,5,5,1,m,m,-800,800,-800,400,L,S,=,0.36361176093153,0.201423513965188,1.81530191922497,1.96782676241184,1.72071857284132,272532.499479659,272532.877384558,272532.877384558,272536.077254845,3.2,272537.927425524,272537.927425524,272540.327295747,2.4,272542.449917008,272543.402180685,0.952263676270377,78,Shorter,Middle,66,L,Index
221,Temporal,2314,3,2,54,400,3.33333333333333,1.25,2,r,r,0,800,0,400,S,=,L,0.221709464745785,0.28816155083289,1.92166288231647,1.04641290735352,1.77412324919854,272545.266673211,272545.507371347,272545.507371347,272547.907323054,2.4,272549.85739345,272549.85739345,272553.057356128,3.2,272554.249985724,272555.546449586,1.29646386200329,77,Longer,Ring,78,=,Middle
221,Temporal,2314,3,2,55,800,1.25,3.33333333333333,1,m,m,-800,-400,-800,0,S,=,L,0.493695093657532,0.381427060697683,1.42894369007172,1.09153916835433,1.97251657123844,272557.466720791,272557.977407142,272557.977407142,272561.177445209,3.2,272562.64759365,272562.64759365,272565.047468685,2.4,272566.283365189,272566.818361817,0.534996628353838,66,Shorter,Index,78,=,Middle
221,Temporal,2314,3,2,56,800,7.5,3.33333333333333,1,l,l,-1600,-400,-1600,-800,L,S,=,0.480730977256636,0.403965625470631,1.00805155408484,1.33662260858038,1.52146433138026,272568.950152798,272569.447673273,272569.447673273,272571.047513918,1.6,272572.087907446,272572.087907446,272574.487830922,2.4,272575.966778049,272576.38616592,0.419387870992068,66,Longer,Index,66,L,Index
221,Temporal,2314,3,2,57,1200,10,5,1,l,l,-1600,0,-1600,-400,L,S,=,0.211841791801775,0.365679600206048,1.62932881901006,1.40111063156728,1.80693845305634,272578.050208425,272578.277889693,272578.277889693,272579.877842298,1.6,272581.548045853,272581.548045853,272583.947907093,2.4,272585.500239425,272585.826300067,0.326060641382355,66,Longer,Index,66,L,Index
221,Temporal,2314,3,2,58,1600,7.5,20,2,l,l,-1600,-400,-1600,0,S,=,L,0.355907991610581,0.389840464513329,1.9129182184576,1.74578407409975,1.36927598831162,272587.783589751,272588.157933104,272588.157933104,272589.757869668,1.6,272591.698178697,272591.698178697,272592.497802736,0.8,272594.400221225,272594.770518667,0.370297441375442,66,Shorter,Index,66,S,Index
221,Temporal,2314,3,2,59,1200,10,7.5,1,m,m,-800,0,-800,400,S,=,L,0.259802977280369,0.423761557439741,1.8590474724158,1.58027654015502,1.92046398851652,272596.283604507,272596.558123853,272596.558123853,272597.357999401,0.8,272599.238268701,272599.238268701,272600.838111592,1.6,272602.567002924,272604.4903939,1.92339097638614,77,Longer,Ring,78,=,Middle
221,Temporal,2314,3,2,60,400,1.25,1.25,2,r,r,0,400,0,400,=,L,S,0.211600797203166,0.23218020279615,1.25782045098746,1.39226475914424,1.01974173280605,272606.567038669,272606.798443166,272606.798443166,272609.998317624,3.2,272611.288201237,272611.288201237,272614.488162631,3.2,272616.017018234,272616.410370122,0.393351888516918,66,Equals to,Index,77,S,Ring
221,Temporal,2314,3,2,61,1200,3.33333333333333,7.5,1,l,l,-1600,-800,-1600,-400,L,S,=,0.494187010465839,0.322471904805893,1.09846326811808,1.61188573169113,1.94015681746772,272617.583780371,272618.088576639,272618.088576639,272620.488456807,2.4,272621.618684884,272621.618684884,272623.21853804,1.6,272624.983740143,272625.338317316,0.354577173129655,78,Shorter,Middle,77,=,Ring
221,Temporal,2314,3,2,62,1200,6.66666666666667,7.5,1,r,r,0,1600,0,1200,L,S,=,0.203617311636262,0.308283454191451,1.0997338620394,1.8292669453078,1.50430933300534,272627.417162787,272627.638605094,272627.638605094,272630.038471468,2.4,272631.168682543,272631.168682543,272632.768469293,1.6,272634.750467569,272635.114376556,0.363908987143077,78,Shorter,Middle,77,=,Ring
221,Temporal,2314,3,2,63,800,1.25,3.33333333333333,1,m,m,-800,-400,-800,0,=,L,S,0.463670520583585,0.453196825930903,1.38394313807296,1.41938713100006,1.91620914781138,272636.767226916,272637.248848757,272637.248848757,272640.448684718,3.2,272641.868982108,272641.868982108,272644.268574836,2.4,272645.833936772,272648.482401756,2.64846498396946,77,Shorter,Ring,77,S,Ring
221,Temporal,2314,3,2,64,800,2.5,3.33333333333333,1,l,l,-1600,-1200,-1600,-800,L,S,=,0.400461913458158,0.45717580279467,1.73297126658307,1.69052311232487,1.14781870797131,272650.550600766,272650.968805795,272650.968805795,272652.568729527,1.6,272654.328907181,272654.328907181,272656.728778045,2.4,272658.567292744,272658.930420257,0.363127513090149,66,Longer,Index,66,L,Index
221,Temporal,2314,3,2,65,1600,10,20,2,m,m,-800,800,-800,800,S,=,L,0.32011318944346,0.352361731227665,1.32955825562042,1.33146544629338,1.45216734522266,272660.233998228,272660.568812339,272660.568812339,272662.168785475,1.6,272663.52906046,272663.52906046,272664.329071066,0.8,272665.817391867,272667.946442721,2.12905085395323,66,Shorter,Index,66,S,Index
221,Temporal,2314,3,2,66,800,1.66666666666667,5,1,m,m,-800,-400,-800,0,S,=,L,0.233444745229137,0.387367470952148,1.8027295236181,1.74418148989785,1.99280978248804,272669.550541097,272669.79917267,272669.79917267,272672.199086843,2.4,272674.039432957,272674.039432957,272675.639317551,1.6,272677.534082342,272677.986375532,0.452293190057389,66,Shorter,Index,66,S,Index
221,Temporal,2314,3,2,67,1200,5,5,1,r,r,0,1600,0,1200,=,L,S,0.377497629976655,0.230927685770835,1.02014458476761,1.50266840115415,1.15527685298679,272680.150770278,272680.539239834,272680.539239834,272683.739188396,3.2,272684.789654791,272684.789654791,272687.189198437,2.4,272688.834189292,272690.282238211,1.44804891920649,77,Shorter,Ring,78,L,Middle
221,Temporal,2314,3,2,68,1200,2.5,5,1,m,m,-800,0,-800,400,L,S,=,0.492832075195302,0.434174849116081,1.01827510627112,1.02693630764423,1.64264599486441,272691.584211529,272692.089427407,272692.089427407,272695.289478305,3.2,272696.32957445,272696.32957445,272698.729529685,2.4,272699.917535559,272701.250494517,1.33295895718038,78,Shorter,Middle,77,=,Ring
221,Temporal,2314,3,2,69,800,5,5,1,l,l,-1600,-400,-1600,-800,L,S,=,0.325482028488189,0.274536914285493,1.4833471922015,1.84418089595254,1.9375748733954,272703.03428926,272703.379840619,272703.379840619,272705.779712767,2.4,272707.299807538,272707.299807538,272708.899635671,1.6,272710.900940464,272711.298431662,0.397491198789794,78,Shorter,Middle,77,=,Ring
221,Temporal,2314,3,2,70,400,1.25,1.25,2,r,r,0,400,0,400,=,L,S,0.407910865228863,0.252722549687038,1.82882668388698,1.97462461493856,1.29180713867649,272713.38435403,272713.809966701,272713.809966701,272717.009868105,3.2,272718.860134063,272718.860134063,272722.059693814,3.2,272724.16728774,272724.506430159,0.339142418873962,66,Equals to,Index,66,=,Index
221,Temporal,2314,3,2,71,1600,6.66666666666667,5,2,m,m,-800,800,-800,800,S,=,L,0.285321084716029,0.264696712632402,1.45871512965365,1.784292198795,1.30846232235417,272725.951091144,272726.250020968,272726.250020968,272728.649941235,2.4,272730.14023509,272730.14023509,272733.339841999,3.2,272735.26779946,272735.658469851,0.390670390799642,77,Longer,Ring,77,L,Ring
221,Temporal,2314,3,2,72,1200,20,7.5,1,r,r,0,1600,0,1200,L,S,=,0.212177215686564,0.252468600707945,1.66139336079341,1.41457030519664,1.10880003781623,272737.151169998,272737.380299366,272737.380299366,272738.180132889,0.8,272739.880169121,272739.880169121,272741.480235931,1.6,272743.051139714,272743.394439729,0.343300014792476,66,Longer,Index,66,L,Index
221,Temporal,2314,3,2,73,800,3.75,3.33333333333333,1,l,l,-1600,-400,-1600,-800,L,S,=,0.211799544066921,0.299160187227998,1.62702194339258,1.83461029490991,1.70303538039586,272744.617886453,272744.840245933,272744.840245933,272748.040161133,3.2,272749.690259375,272749.690259375,272752.090280695,2.4,272754.06743518,272754.450318974,0.382883793266956,78,Shorter,Middle,77,=,Ring
221,Temporal,2314,3,2,74,800,1.25,3.33333333333333,1,l,l,-1600,-1200,-1600,-800,L,S,=,0.428972343192534,0.363472316557617,1.63948985282444,1.71287439546167,1.17634971774223,272756.301279423,272756.750494472,272756.750494472,272759.95041737,3.2,272761.620555161,272761.620555161,272764.020477995,2.4,272765.884585649,272766.378432984,0.493847335397732,78,Shorter,Middle,77,=,Ring
221,Temporal,2314,3,2,75,1600,20,20,2,r,r,0,1600,0,1600,S,=,L,0.37787713915756,0.361750271343732,1.38031644306264,1.23341366842367,1.40448824346167,272767.70133736,272768.090641001,272768.090641001,272768.890606374,0.8,272770.300802987,272770.300802987,272771.100619828,0.8,272772.484682941,272772.970408246,0.485725305159576,78,Equals to,Middle,78,=,Middle
221,Temporal,2314,3,2,76,1200,5,5,1,r,r,0,800,0,1200,=,L,S,0.470855770846257,0.437801928367608,1.36294512717094,1.02521303730684,1.44978690761051,272774.5176685,272775.000822171,272775.000822171,272776.60067244,1.6,272778.000639955,272778.000639955,272780.400666409,2.4,272781.568015191,272781.938432933,0.37041774217505,78,Longer,Middle,78,L,Middle
221,Temporal,2314,3,2,77,1200,5,5,1,r,r,0,800,0,1200,=,L,S,0.234552830117647,0.409872517819331,1.38543443465255,1.7091086858281,1.85541345373388,272783.534731004,272783.780899779,272783.780899779,272785.380593818,1.6,272786.800891849,272786.800891849,272789.200793511,2.4,272791.051472395,272791.730438928,0.678966532519553,78,Longer,Middle,78,L,Middle
221,Temporal,2314,3,2,78,1600,15,20,2,r,r,0,1200,0,1600,=,L,S,0.240067982959535,0.466012429138075,1.07132955158181,1.39074954911422,1.449323856428,272793.734828143,272793.991080693,272793.991080693,272794.790892401,0.8,272795.890942299,272795.890942299,272796.690816563,0.8,272798.218111784,272799.082403488,0.864291704143398,66,Equals to,Index,78,L,Middle
221,Temporal,2314,3,2,79,800,1.66666666666667,5,1,r,r,0,400,0,800,=,L,S,0.446254239196478,0.455889921761194,1.73232359084843,1.73444104644421,1.74948268048992,272800.68482471,272801.151362113,272801.151362113,272803.550906722,2.4,272805.311294501,272805.311294501,272806.911220479,1.6,272808.801511042,272809.266314554,0.464803511858918,77,Shorter,Ring,77,S,Ring
221,Temporal,2314,3,2,80,1200,6.66666666666667,7.5,1,l,l,-1600,0,-1600,-400,L,S,=,0.275559298678539,0.420932659057681,1.44641687093024,1.16090181133686,1.08664620616172,272811.168273244,272811.461398152,272811.461398152,272813.861149678,2.4,272815.351279924,272815.351279924,272816.951294443,1.6,272818.268237763,272818.770438787,0.502201023628004,78,Shorter,Middle,77,=,Ring
221,Temporal,2314,3,2,81,1600,5,5,2,r,r,0,1200,0,1600,L,S,=,0.404515354634109,0.489053509449058,1.62120896786292,1.87745515427252,1.75427220135971,272820.018274816,272820.441293481,272820.441293481,272822.841184876,2.4,272824.491541685,272824.491541685,272827.691429937,3.2,272829.718364858,272830.218300416,0.499935557658318,66,Longer,Index,77,=,Ring
221,Temporal,2314,3,2,82,400,3.33333333333333,1.25,2,r,r,0,800,0,400,L,S,=,0.354193280152139,0.318497842763344,1.28089489549591,1.60234126264741,1.13265967875788,272832.118404869,272832.491473675,272832.491473675,272834.891482485,2.4,272836.201575671,272836.201575671,272839.401484133,3.2,272841.151701246,272841.514554152,0.362852906459011,66,Longer,Index,66,L,Index
221,Temporal,2314,3,2,83,1600,20,20,2,l,l,-1600,0,-1600,0,=,L,S,0.33359742783153,0.439926455794005,1.33178471859564,1.30767473151067,1.74280501545388,272842.835028131,272843.181689466,272843.181689466,272843.981529405,0.8,272845.351984726,272845.351984726,272846.151477878,0.8,272847.601800577,272847.962383701,0.360583124158438,66,Equals to,Index,66,=,Index
221,Temporal,2314,3,2,84,1200,10,5,1,l,l,-1600,0,-1600,-400,=,L,S,0.280917383078123,0.328855026239581,1.52058368033579,1.95587137607992,1.39941683398994,272849.851807047,272850.151582504,272850.151582504,272851.751621405,1.6,272853.302042246,272853.302042246,272855.701855045,2.4,272857.801828957,272858.770488511,0.968659553851467,78,Longer,Middle,66,=,Index
221,Temporal,2314,3,2,85,1200,3.33333333333333,7.5,1,l,l,-1600,-800,-1600,-400,S,=,L,0.419703549674306,0.338081937114817,1.8305368456849,1.78072259967695,1.63151472288393,272860.318518048,272860.752019244,272860.752019244,272863.151860916,2.4,272865.011804512,272865.011804512,272866.611787272,1.6,272868.535270059,272868.938464371,0.403194312588312,66,Shorter,Index,66,S,Index
221,Temporal,2314,3,2,86,400,5,5,2,r,r,0,400,0,400,L,S,=,0.265929760629377,0.283869610245801,1.84612618294653,1.12635604785905,1.24848562360616,272870.718605178,272871.002055335,272871.002055335,272871.801894311,0.8,272873.682216223,272873.682216223,272874.4820552,0.8,272875.751906046,272876.314568332,0.562662285810802,77,Equals to,Ring,77,=,Ring
221,Temporal,2314,3,2,87,1200,10,5,1,l,l,-1600,0,-1600,-400,S,=,L,0.324780283361766,0.361951467096629,1.43911239292426,1.53786380042098,1.17018290308422,272877.718618331,272878.062111424,272878.062111424,272879.662109261,1.6,272881.142256465,272881.142256465,272883.542162617,2.4,272885.218696295,272885.666494075,0.447797779692337,77,Longer,Ring,77,L,Ring
221,Temporal,2314,3,2,88,1600,6.66666666666667,5,2,m,m,-800,800,-800,800,S,=,L,0.275894051287367,0.314754341277537,1.35030746380993,1.77296360320027,1.06078449634263,272886.985384254,272887.272468136,272887.272468136,272889.672378459,2.4,272891.052499549,272891.052499549,272894.252353796,3.2,272896.168712422,272896.562535248,0.393822826095857,77,Longer,Ring,77,L,Ring
221,Temporal,2314,3,2,89,400,1.66666666666667,1.25,2,l,l,-1600,-1200,-1600,-1200,S,=,L,0.263918239092081,0.240227375097154,1.54187016807226,1.5365621638027,1.28465495672568,272897.785452007,272898.06264171,272898.06264171,272900.462532784,2.4,272902.042663113,272902.042663113,272905.242503887,3.2,272906.91876359,272907.314486527,0.395722937304527,77,Longer,Ring,77,L,Ring
221,Temporal,2314,3,2,90,1600,5,5,2,m,m,-800,800,-800,800,S,=,L,0.267183531826619,0.398947128211097,1.2413012702864,1.26320524172008,1.3593850230787,272908.752182257,272909.032811279,272909.032811279,272912.23263505,3.2,272913.512608442,272913.512608442,272916.712638489,3.2,272918.135492717,272918.52252769,0.387034973246045,78,Equals to,Middle,77,L,Ring
221,Temporal,2314,3,2,91,1200,10,7.5,1,l,l,-1600,-800,-1600,-400,L,S,=,0.424825006578677,0.473784756072299,1.90745249405591,1.80624060639551,1.80852032639353,272920.018909683,272920.462899506,272920.462899506,272921.262756127,0.8,272923.212665802,272923.212665802,272924.812679359,1.6,272926.768944646,NaN,NaN,66,Longer,Index,999,Missed,Missed
221,Temporal,2314,3,2,92,1200,6.66666666666667,7.5,1,l,l,-1600,0,-1600,-400,S,=,L,0.247239677994644,0.27261299155362,1.73474679384637,1.67302033789654,1.53176280671445,272931.718706872,272931.983015085,272931.983015085,272934.382892044,2.4,272936.152995959,272936.152995959,272937.75283917,1.6,272939.568957707,272939.922409827,0.353452119918074,66,Shorter,Index,66,S,Index
221,Temporal,2314,3,2,93,800,5,5,1,m,m,-800,-400,-800,0,=,L,S,0.300228271662039,0.323471586108128,1.02254009545093,1.69876195905496,1.11485791636111,272941.602314074,272941.913073477,272941.913073477,272942.712964744,0.8,272943.773151766,272943.773151766,272945.37318425,1.6,272947.219060309,272947.68264486,0.463584551180247,78,Longer,Middle,78,L,Middle
221,Temporal,2314,3,2,94,800,7.5,3.33333333333333,1,r,r,0,1200,0,800,S,=,L,0.303728539967415,0.360819781336951,1.92433217940225,1.13845499803603,1.41576183534007,272948.952370183,272949.273331415,272949.273331415,272950.873241995,1.6,272952.82332779,272952.82332779,272955.223215657,2.4,272956.502388693,272956.93862381,0.436235117202159,77,Longer,Ring,77,L,Ring
221,Temporal,2314,3,2,95,1200,5,5,1,l,l,-1600,0,-1600,-400,=,L,S,0.247189261442305,0.428045635411878,1.23182484639146,1.03817765386452,1.37559279610233,272958.502471139,272958.763485676,272958.763485676,272961.963364624,3.2,272963.233530453,272963.233530453,272965.633392335,2.4,272966.819183353,NaN,NaN,77,Shorter,Ring,999,Missed,Missed
221,Temporal,2314,3,2,96,1600,5,5,2,m,m,-800,800,-800,800,L,S,=,0.419129118522606,0.28381735270559,1.54447241714851,1.35270029547911,1.12397650879594,272971.302508737,272971.733769451,272971.733769451,272974.933631076,3.2,272976.513800864,272976.513800864,272979.713685908,3.2,272981.21920572,272981.642623828,0.423418108490296,77,Equals to,Ring,77,=,Ring
