Subject,Task,SequenceOrder,ListNo,RunNo,TrialNo,Aud_Probe_Dist,Aud_Standard_Vel,Aud_Probe_Vel,Main_Control,Aud_Std_StartCode,Aud_Probe_StartCode,Aud_Std_StartPt,Aud_Std_EndPt,Aud_Probe_StartPt,Aud_Probe_EndPt,RespIndex,RespMiddle,RespRing,ISI_Cross_Std,ISI_Cross_Probe,ISI_Std_Probe,ISI_Probe_Response,ITI,TrialOnset,StdOnset,StdOnsetByStop,StdOffset,StdDur,ProbeOnset,ProbeOnsetByStop,ProbeOffset,ProbeDur,RespWinStart,RespTime,RT,CorrectKC,CorrectResponse,CorrectFinger,SubjRespKC,SubjResponse,SubjRespFinger
226,Spatial,4132,4,0,1,800,5,5,1,m,m,-800,-400,-800,0,=,L,S,0.260271362055014,0.325385065139693,1.4838742265039,1.89977712952826,1.24784199012725,777414.308844259,777414.580240916,777414.580240916,777415.381195001,0.8,777416.891396234,777416.891396234,777418.491287565,1.6,777420.542268893,777421.533279374,0.991010481840931,78,Longer,Middle,78,L,Middle
226,Spatial,4132,4,0,2,1200,10,5,1,m,m,-800,800,-800,400,=,L,S,0.444645746447512,0.295132538712943,1.30260165564363,1.14015508744144,1.4147590484337,777422.942291862,777423.401630464,777423.401630464,777425.001533665,1.6,777426.331837388,777426.331837388,777428.731420172,2.4,777430.008979894,777430.373320681,0.364340786938556,77,Shorter,Ring,78,L,Middle
226,Spatial,4132,4,0,3,400,1.66666666666667,1.25,2,r,r,0,400,0,400,L,S,=,0.323129095700362,0.445960688245718,1.5111892331056,1.6844100052066,1.14851230532774,777431.975672289,777432.311755494,777432.311755494,777434.711656193,2.4,777436.251700688,777436.251700688,777439.451663366,3.2,777441.275702188,777442.037114243,0.761412055580877,77,Equals to,Ring,66,L,Index
226,Spatial,4132,4,0,4,1200,2.5,5,1,l,l,-1600,-800,-1600,-400,=,L,S,0.472061313696452,0.370918143189645,1.70828315364128,1.52110005172816,1.29936030977588,777443.342454701,777443.832021208,777443.832021208,777447.031861981,3.2,777448.762086978,777448.762086978,777451.162046063,2.4,777452.82578165,777453.333306065,0.507524414686486,78,Longer,Middle,78,L,Middle
226,Spatial,4132,4,0,5,800,2.5,3.33333333333333,1,r,r,0,400,0,800,S,=,L,0.32770341342231,0.228884052756512,1.34200582867149,1.92453552795596,1.76799002734562,777454.792533073,777455.1321605,777455.1321605,777456.732061776,1.6,777458.102127643,777458.102127643,777460.501962578,2.4,777462.559219758,777463.013286021,0.454066263628192,77,Longer,Ring,78,=,Middle
226,Spatial,4132,4,0,6,1200,2.5,5,1,m,m,-800,0,-800,400,S,=,L,0.372963739883007,0.428334238845945,1.56244548518022,1.86672469604311,1.10184099071439,777464.925930631,777465.312128586,777465.312128586,777468.512028387,3.2,777470.102241528,777470.102241528,777472.502234297,2.4,777474.509304546,777474.909451666,0.400147119886242,77,Longer,Ring,78,=,Middle
226,Spatial,4132,4,0,7,1600,6.66666666666667,5,2,m,m,-800,800,-800,800,=,L,S,0.345929543509136,0.250220554597785,1.20805024277068,1.38055850541141,1.9167755515817,777476.159335696,777476.522565179,777476.522565179,777478.922367712,2.4,777480.162499723,777480.162499723,777483.362378029,3.2,777484.892655427,777485.477412962,0.584757534554228,66,Equals to,Index,78,L,Middle
226,Spatial,4132,4,0,8,1200,3.33333333333333,7.5,1,l,l,-1600,-800,-1600,-400,=,L,S,0.314419915291803,0.354238665461044,1.13900305808531,1.11214716608577,1.42675384578957,777487.542701013,777487.872765648,777487.872765648,777490.272554708,2.4,777491.442519266,777491.442519266,777493.042405785,1.6,777494.309423628,777494.709309935,0.399886307772249,78,Longer,Middle,78,L,Middle
226,Spatial,4132,4,0,9,800,5,5,1,l,l,-1600,-400,-1600,-800,=,L,S,0.399160482285716,0.314031271702258,1.10921205927728,1.57954923125586,1.97685023601908,777496.292797176,777496.712735416,777496.712735416,777499.112535062,2.4,777500.252539585,777500.252539585,777501.852529724,1.6,777503.592852625,777504.037318915,0.444466289831325,77,Shorter,Ring,66,=,Index
226,Spatial,4132,4,0,10,1600,7.5,20,2,m,m,-800,400,-800,800,L,S,=,0.441865842266153,0.214878216555342,1.79301207245099,1.26104334620686,1.73130587406496,777506.159555397,777506.612938355,777506.612938355,777508.212729597,1.6,777510.032917465,777510.032917465,777510.832792692,0.8,777512.242882523,NaN,NaN,66,Longer,Index,999,Missed,Missed
226,Spatial,4132,4,0,11,1200,6.66666666666667,7.5,1,r,r,0,1600,0,1200,L,S,=,0.357062300958619,0.417329351986595,1.77678334341592,1.39986083476516,1.268365690732,777517.092916496,777517.463225762,777517.463225762,777519.862725458,2.4,777521.67300054,777521.67300054,777523.273054197,1.6,777524.826335678,777525.309283758,0.4829480801709,78,Shorter,Middle,77,=,Ring
226,Spatial,4132,4,0,12,1200,6.66666666666667,7.5,1,m,m,-800,800,-800,400,L,S,=,0.421841342767401,0.247859707277424,1.01800980567057,1.15811011611703,1.72912859413042,777526.726347417,777527.163344395,777527.163344395,777529.562872321,2.4,777530.613178636,777530.613178636,777532.212995542,1.6,777533.509647163,777534.013208708,0.503561545629054,78,Shorter,Middle,77,=,Ring
226,Spatial,4132,4,0,13,1600,15,20,2,m,m,-800,400,-800,800,S,=,L,0.49497046489446,0.206433145947375,1.33937349338938,1.61560983220507,1.96104062076595,777535.876400382,777536.383396069,777536.383396069,777537.183270013,0.8,777538.543524146,777538.543524146,777539.343135354,0.8,777541.109767465,777541.597326242,0.48755877756048,77,Longer,Ring,78,=,Middle
226,Spatial,4132,4,0,14,800,1.66666666666667,5,1,m,m,-800,-400,-800,0,S,=,L,0.340084976232012,0.42800483529767,1.03408136540673,1.97564715984877,1.53319549032255,777543.693160755,777544.043459665,777544.043459665,777546.443205417,2.4,777547.513454719,777547.513454719,777549.113288306,1.6,777551.226439487,777551.637336688,0.410897200228646,77,Longer,Ring,66,S,Index
226,Spatial,4132,4,0,15,800,1.25,3.33333333333333,1,m,m,-800,-400,-800,0,=,L,S,0.331519170245072,0.279890216871325,1.45107240009045,1.6220035170889,1.5822648607289,777553.326537781,777553.673681282,777553.673681282,777556.873577874,3.2,777558.363703308,777558.363703308,777560.763377521,2.4,777562.526508524,777563.005359962,0.478851438383572,78,Longer,Middle,78,L,Middle
226,Spatial,4132,4,0,16,800,5,5,1,l,l,-1600,-1200,-1600,-800,L,S,=,0.285643507621914,0.229632455310595,1.11580534143103,1.86408976176025,1.40249991781501,777564.743214553,777565.043892427,777565.043892427,777565.843661148,0.8,777566.993888353,777566.993888353,777568.593726752,1.6,777570.609889817,777571.117319274,0.507429457153194,66,Longer,Index,66,L,Index
226,Spatial,4132,4,0,17,800,3.75,3.33333333333333,1,l,l,-1600,-400,-1600,-800,=,L,S,0.286003703774234,0.444994006710685,1.15126134582421,1.78687997429037,1.59213433592067,777572.676649067,777572.974017226,777572.974017226,777576.173885588,3.2,777577.363929794,777577.363929794,777579.763787185,2.4,777581.693360536,777582.261234331,0.567873795633204,77,Shorter,Ring,66,=,Index
226,Spatial,4132,4,0,18,400,2.5,1.25,2,r,r,0,800,0,400,L,S,=,0.216328655722602,0.254483347765674,1.75597005950534,1.83507794630485,1.97278332051921,777584.010014481,777584.244051481,777584.244051481,777587.443993628,3.2,777589.234075817,777589.234075817,777592.433906004,3.2,777594.410069531,777595.221382041,0.811312510631979,78,Shorter,Middle,77,=,Ring
226,Spatial,4132,4,0,19,800,2.5,3.33333333333333,1,m,m,-800,-400,-800,0,L,S,=,0.222816320564546,0.385837780327543,1.55024043714249,1.98375687393199,1.30956026474335,777597.343474852,777597.584210522,777597.584210522,777599.184048279,1.6,777600.754243686,777600.754243686,777603.154239343,2.4,777605.293514697,777605.853238466,0.559723768848926,66,Longer,Index,66,L,Index
226,Spatial,4132,4,0,20,1600,10,20,2,r,r,0,1600,0,1600,S,=,L,0.459728130878929,0.338068275056718,1.99288417121023,1.10091808644752,1.55588638711694,777607.310211743,777607.78453126,777607.78453126,777609.384411363,1.6,777611.404337714,777611.404337714,777612.204329392,0.8,777613.460176582,777614.365353238,0.90517665608786,78,Equals to,Middle,66,S,Index
