Subject,Task,SequenceOrder,ListNo,RunNo,TrialNo,Aud_Probe_Dist,Aud_Standard_Vel,Aud_Probe_Vel,Main_Control,Aud_Std_StartCode,Aud_Probe_StartCode,Aud_Std_StartPt,Aud_Std_EndPt,Aud_Probe_StartPt,Aud_Probe_EndPt,RespIndex,RespMiddle,RespRing,ISI_Cross_Std,ISI_Cross_Probe,ISI_Std_Probe,ISI_Probe_Response,ITI,TrialOnset,StdOnset,StdOnsetByStop,StdOffset,StdDur,ProbeOnset,ProbeOnsetByStop,ProbeOffset,ProbeDur,RespWinStart,RespTime,RT,CorrectKC,CorrectResponse,CorrectFinger,SubjRespKC,SubjResponse,SubjRespFinger
225,Temporal,3421,3,1,1,1200,6.66666666666667,7.5,1,l,l,-1600,0,-1600,-400,L,S,=,0.25478474219645,0.31132028514615,1.67989386026293,1.28708569281747,1.5605017664022,701667.773572382,701668.039284746,701668.039284746,701670.441197837,2.4,701672.151551386,701672.151551386,701673.751414808,1.6,701675.190274402,701675.984760293,0.794485891587101,78,Shorter,Middle,78,S,Middle
225,Temporal,3421,3,1,2,800,15,5,1,l,l,-1600,-400,-1600,-800,=,L,S,0.409892626238053,0.259292621604102,1.579908719396,1.50946173610708,1.24067733330001,701677.690337696,701678.1116606,701678.1116606,701678.911547697,0.8,701680.521715695,701680.521715695,701682.121645843,1.6,701683.773709981,701684.952783376,1.17907339509111,78,Longer,Middle,78,L,Middle
225,Temporal,3421,3,1,3,800,3.75,3.33333333333333,1,l,l,-1600,-400,-1600,-800,L,S,=,0.39048625421339,0.391983454434894,1.49602627479487,1.93417957308544,1.31832349545247,701686.340410871,701686.751695876,701686.751695876,701689.951592148,3.2,701691.481722252,701691.481722252,701693.881562319,2.4,701695.957065443,701696.400815351,0.443749907775782,78,Shorter,Middle,77,=,Ring
225,Temporal,3421,3,1,4,800,1.66666666666667,5,1,m,m,-800,-400,-800,0,=,L,S,0.450831623953972,0.287162742715458,1.55583331635448,1.25299661011412,1.71668957433564,701697.873813754,701698.3418323,701698.3418323,701700.741755455,2.4,701702.332000355,701702.332000355,701703.931654614,1.6,701705.323792035,701705.896923058,0.573131022742018,77,Shorter,Ring,77,S,Ring
225,Temporal,3421,3,1,5,400,5,5,2,m,m,-800,0,-800,-400,S,=,L,0.291009757128518,0.466063507515458,1.64680513868445,1.68379435147654,1.84838501791843,701707.773873276,701708.082052486,701708.082052486,701709.681877732,1.6,701711.352079363,701711.352079363,701712.152031582,0.8,701713.990516447,701714.44079115,0.450274702976458,66,Shorter,Index,66,S,Index
225,Temporal,3421,3,1,6,1600,10,20,2,m,m,-800,800,-800,800,S,=,L,0.374251602114736,0.276829875901848,1.43899104913884,1.91264861366125,1.25149871803628,701716.440599582,701716.832219784,701716.832219784,701718.432093472,1.6,701719.892122851,701719.892122851,701720.691985246,0.8,701722.757245156,701725.10482788,2.34758272371255,66,Shorter,Index,66,S,Index
225,Temporal,3421,3,1,7,1600,6.66666666666667,5,2,m,m,-800,800,-800,800,L,S,=,0.358666822908291,0.243282227285782,1.77393985962714,1.30623801438909,1.91073700754382,701726.507340274,701726.882146224,701726.882146224,701729.282135464,2.4,701731.082210962,701731.082210962,701734.282294903,3.2,701735.723985672,701736.192880053,0.468894381076097,66,Longer,Index,66,L,Index
225,Temporal,3421,3,1,8,1600,5,5,2,m,m,-800,800,-800,800,S,=,L,0.314577957108312,0.262973679978796,1.77804181341651,1.4234432028626,1.05066840764737,701738.25736642,701738.582316827,701738.582316827,701741.782347835,3.2,701743.582829148,701743.582829148,701746.78234559,3.2,701748.340767282,701748.768841192,0.428073910181411,78,Equals to,Middle,78,=,Middle
225,Temporal,3421,3,1,9,400,5,5,2,m,m,-800,-400,-800,-400,L,S,=,0.439179772549535,0.382469691173022,1.19106106256443,1.40906372936272,1.48425324972594,701749.974108058,701750.432519862,701750.432519862,701751.232481706,0.8,701752.442670043,701752.442670043,701753.242490734,0.8,701754.790780531,701755.248873503,0.458092972286977,77,Equals to,Ring,77,=,Ring
225,Temporal,3421,3,1,10,400,3.33333333333333,1.25,2,r,r,0,800,0,400,S,=,L,0.25774574968713,0.483020827893143,1.196088595798,1.64798476938615,1.39051445569514,701756.890869521,701757.162933126,701757.162933126,701759.562780893,2.4,701760.782601314,701760.782601314,701763.982644513,3.2,701765.77419121,701766.440828362,0.666637152899057,77,Longer,Ring,77,L,Ring
225,Temporal,3421,3,1,11,800,5,5,1,r,r,0,1200,0,800,S,=,L,0.499346564555414,0.428145346303715,1.67453132393147,1.29313387741909,1.6335805853079,701767.974273271,701768.493136714,701768.493136714,701770.892706024,2.4,701772.592962326,701772.592962326,701774.192872905,1.6,701775.624253734,701776.056891376,0.43263764178846,66,Shorter,Index,66,S,Index
225,Temporal,3421,3,1,12,1200,6.66666666666667,7.5,1,l,l,-1600,0,-1600,-400,L,S,=,0.224144286078879,0.470468178533744,1.83538086612024,1.28343422142365,1.40152656979314,701777.840971633,701778.083174652,701778.083174652,701780.483030438,2.4,701782.343105243,701782.343105243,701783.942875953,1.6,701785.374315488,701786.120842965,0.746527477051131,78,Shorter,Middle,78,S,Middle
225,Temporal,3421,3,1,13,1200,10,7.5,1,m,m,-800,0,-800,400,=,L,S,0.268955165047813,0.463941889277036,1.81015725779343,1.14202775246619,1.64408745316786,701787.674369447,701787.962983556,701787.962983556,701788.762984217,0.8,701790.60310994,701790.60310994,701792.203085642,1.6,701793.491104749,701793.944766851,0.453662101412192,78,Longer,Middle,78,L,Middle
225,Temporal,3421,3,1,14,400,1.66666666666667,1.25,2,l,l,-1600,-1200,-1600,-1200,S,=,L,0.372856712348665,0.325395000685468,1.81734792020625,1.17765950990836,1.00765843378676,701795.741079615,701796.133347468,701796.133347468,701798.533274473,2.4,701800.373545839,701800.373545839,701803.573382121,3.2,701804.907815575,701806.441006408,1.53319083305541,77,Longer,Ring,77,L,Ring
225,Temporal,3421,3,1,15,1200,6.66666666666667,7.5,1,r,r,0,1600,0,1200,S,=,L,0.490890880344537,0.27990726096318,1.80913981826791,1.81732631267007,1.79002013322163,701807.624549193,701808.133400079,701808.133400079,701810.533415946,2.4,701812.363747579,701812.363747579,701813.963604905,1.6,701815.924578685,701816.28895645,0.364377764752135,66,Shorter,Index,66,S,Index
225,Temporal,3421,3,1,16,1600,6.66666666666667,5,2,m,m,-800,800,-800,800,=,L,S,0.443612133653823,0.335718389443541,1.0687704730119,1.84055724900793,1.35991749230261,701818.224602895,701818.683874129,701818.683874129,701821.083752692,2.4,701822.173840079,701822.173840079,701825.373731859,3.2,701827.357942709,701827.80091018,0.442967471317388,78,Longer,Middle,78,L,Middle
225,Temporal,3421,3,1,17,800,1.25,3.33333333333333,1,m,m,-800,-400,-800,0,=,L,S,0.445398214351933,0.459953457063468,1.24946704956168,1.14300617769162,1.68318342387097,701829.324679054,701829.783855971,701829.783855971,701832.983656965,3.2,701834.253968438,701834.253968438,701836.653975964,2.4,701837.958065619,701838.608956604,0.650890985270962,77,Shorter,Ring,66,=,Index
225,Temporal,3421,3,1,18,1200,20,7.5,1,r,r,0,1600,0,1200,S,=,L,0.335267276827448,0.235175151397414,1.54229219289171,1.28245278953596,1.70998430075697,701840.441373085,701840.794264718,701840.794264718,701841.594063915,0.8,701843.164220185,701843.164220185,701844.764088739,1.6,701846.190963581,701846.768897653,0.577934072585776,77,Longer,Ring,77,L,Ring
225,Temporal,3421,3,1,19,1200,5,5,1,r,r,0,800,0,1200,L,S,=,0.263984657963504,0.240321375621622,1.71490609836789,1.23348374582815,1.98193619445308,701848.624818697,701848.904096791,701848.904096791,701850.5040032,1.6,701852.254038373,701852.254038373,701854.65398238,2.4,701856.041507767,701856.440966949,0.399459181702696,66,Longer,Index,66,L,Index
225,Temporal,3421,3,1,20,400,1.66666666666667,1.25,2,l,l,-1600,-1200,-1600,-1200,L,S,=,0.234818478175138,0.230314522465172,1.19155533610172,1.65342077245112,1.39119833981784,701858.574846352,701858.824286026,701858.824286026,701861.224166194,2.4,701862.444158565,701862.444158565,701865.644163268,3.2,701867.44152707,701867.928888748,0.487361678038724,66,Longer,Index,66,L,Index
225,Temporal,3421,3,1,21,400,2.5,5,2,r,r,0,400,0,400,=,L,S,0.218572307378239,0.407048962194114,1.12800502554293,1.25285471459018,1.96734183707644,701869.458282887,701869.694721412,701869.694721412,701871.294545054,1.6,701872.454656816,701872.454656816,701873.25451087,0.8,701874.658312027,701875.27293944,0.614627412287518,77,Shorter,Ring,77,S,Ring
225,Temporal,3421,3,1,22,1600,7.5,20,2,l,l,-1600,-400,-1600,0,S,=,L,0.224612827259717,0.265812319087433,1.31481168900382,1.02577979157376,1.98772177523814,701877.391660523,701877.634340992,701877.634340992,701879.234351341,1.6,701880.574815189,701880.574815189,701881.374678226,0.8,701882.541625043,701883.016930976,0.475305933039635,66,Shorter,Index,66,S,Index
225,Temporal,3421,3,1,23,800,15,5,1,m,m,-800,400,-800,0,=,L,S,0.421194748732016,0.421659686279139,1.64501994926748,1.6894817061375,1.94882172653216,701885.158390613,701885.594707489,701885.594707489,701886.394533955,0.8,701888.064613039,701888.064613039,701889.664639749,1.6,701891.491719134,701893.272928532,1.7812093985267,78,Longer,Middle,77,S,Ring
225,Temporal,3421,3,1,24,1200,20,7.5,1,l,l,-1600,0,-1600,-400,=,L,S,0.209399629661986,0.230952132747733,1.67814722167329,1.30547859987739,1.88861539491373,701895.375072581,701895.594728983,701895.594728983,701896.394672541,0.8,701898.105000747,701898.105000747,701899.704887267,1.6,701901.158426863,701901.552986893,0.394560029380955,78,Longer,Middle,78,L,Middle
225,Temporal,3421,3,1,25,1200,2.5,5,1,m,m,-800,0,-800,400,L,S,=,0.224879853476753,0.276505183558338,1.16452690700395,1.94257365941727,1.61863083301489,701907.175197758,701907.4149861,701907.4149861,701910.61496161,3.2,701911.805340413,701911.805340413,701914.205171498,2.4,701916.29184784,701916.776764364,0.484916524030268,78,Shorter,Middle,78,S,Middle
225,Temporal,3421,3,1,26,1600,15,20,2,r,r,0,1200,0,1600,L,S,=,0.268153800851789,0.367208715249619,1.0224594220688,1.429968318192,1.66480887292947,701918.541897404,701918.825225014,701918.825225014,701919.625021324,0.8,701920.675174616,701920.675174616,701921.474971247,0.8,701923.058573662,701924.27287977,1.21430610807147,77,Equals to,Ring,77,=,Ring
225,Temporal,3421,3,1,27,1600,15,20,2,m,m,-800,400,-800,800,S,=,L,0.220007655207074,0.380135402098416,1.22610111741118,1.62257088147643,1.17921394214288,701926.091941578,701926.325178498,701926.325178498,701927.125169214,0.8,701928.385320882,701928.385320882,701929.185295558,0.8,701930.958675463,701931.416986346,0.458310882560909,78,Equals to,Middle,78,=,Middle
225,Temporal,3421,3,1,28,1200,5,5,1,l,l,-1600,0,-1600,-400,L,S,=,0.287608716631848,0.350918871594891,1.87431332952363,1.41781516675971,1.64272821168658,701932.758670801,701933.065635114,701933.065635114,701936.265478133,3.2,701938.165544135,701938.165544135,701940.565388694,2.4,701942.125355689,701942.648960954,0.52360526449047,78,Shorter,Middle,77,=,Ring
225,Temporal,3421,3,1,29,1600,3.75,5,2,r,r,0,1200,0,1600,L,S,=,0.346853334505442,0.428336554203289,1.99381444914702,1.39375144726609,1.54888392103579,701944.458735218,701944.825681515,701944.825681515,701948.025529025,3.2,701950.05566715,701950.05566715,701953.255548023,3.2,701954.80882967,701955.216923212,0.408093541976996,77,Equals to,Ring,66,L,Index
225,Temporal,3421,3,1,30,400,10,5,2,r,r,0,800,0,400,L,S,=,0.214281081604413,0.40485081568929,1.27192542022583,1.94899565917955,1.02217002398703,701956.90871739,701957.14582988,701957.14582988,701957.945818992,0.8,701959.245848936,701959.245848936,701960.045809817,0.8,701962.142169893,701962.648984373,0.506814479478635,77,Equals to,Ring,77,=,Ring
225,Temporal,3421,3,1,31,1200,5,5,1,m,m,-800,800,-800,400,S,=,L,0.335142444644652,0.360534831644691,1.98827862074648,1.08217143739794,1.33058683292924,701963.858496734,701964.205883723,701964.205883723,701967.405890351,3.2,701969.426135258,701969.426135258,701971.826015105,2.4,701973.058925582,701973.984933847,0.926008265116252,66,Shorter,Index,66,S,Index
225,Temporal,3421,3,1,32,1600,3.75,5,2,l,l,-1600,-400,-1600,0,L,S,=,0.30649722164303,0.442843943872627,1.35880059625608,1.10621765593165,1.11947813371706,701975.475658174,701975.796282243,701975.796282243,701978.996144831,3.2,701980.386206296,701980.386206296,701983.58604322,3.2,701984.842341137,701985.456997112,0.614655975019559,77,Equals to,Ring,66,L,Index
225,Temporal,3421,3,1,33,1600,10,20,2,m,m,-800,800,-800,800,=,L,S,0.395610351799713,0.331629930523509,1.01494701775183,1.59221696446974,1.26510320407831,701986.725723136,701987.136124011,701987.136124011,701988.736109979,1.6,701989.786594659,701989.786594659,701990.586025255,0.8,701992.325752644,701992.833063859,0.507311215274967,77,Shorter,Ring,77,S,Ring
225,Temporal,3421,3,1,34,800,5,5,1,m,m,-800,-400,-800,0,S,=,L,0.301667572553285,0.290066757119791,1.95361222723733,1.4712790842114,1.43323628009583,701994.259066671,701994.576325526,701994.576325526,701995.376119269,0.8,701997.356206803,701997.356206803,701998.956235759,1.6,702000.575748768,702001.104955559,0.529206790961325,77,Longer,Ring,77,L,Ring
225,Temporal,3421,3,1,35,1600,20,20,2,r,r,0,1600,0,1600,=,L,S,0.432860201847888,0.362304441391657,1.06866757224431,1.11830329739327,1.73717792142533,702002.692453386,702003.136534958,702003.136534958,702003.93636014,0.8,702005.046772268,702005.046772268,702005.846575957,0.8,702007.109192356,702008.448870552,1.339678195538,66,Equals to,Index,66,=,Index
225,Temporal,3421,3,1,36,1200,20,7.5,1,r,r,0,1600,0,1200,L,S,=,0.354182267969869,0.34229855049699,1.68615186925994,1.04832368924116,1.19079073783142,702010.342545167,702010.716490726,702010.716490726,702011.516386484,0.8,702013.226856806,702013.226856806,702014.826711887,1.6,702016.025870128,702017.840819573,1.81494944484439,66,Longer,Index,66,L,Index
225,Temporal,3421,3,1,37,1200,10,5,1,l,l,-1600,0,-1600,-400,=,L,S,0.256690483211808,0.201408123237399,1.90525028036013,1.03389144765738,1.02146700569326,702019.175946832,702019.446872872,702019.446872872,702021.046698118,1.6,702022.977042711,702022.977042711,702025.376827921,2.4,702026.559317129,702027.089023562,0.529706432600506,78,Longer,Middle,78,L,Middle
225,Temporal,3421,3,1,38,800,5,5,1,m,m,-800,-400,-800,0,L,S,=,0.269691174258607,0.445063922385673,1.48512871879851,1.23341005063591,1.39242642176467,702028.259344807,702028.546929141,702028.546929141,702029.346727375,0.8,702030.857184929,702030.857184929,702032.456692902,1.6,702033.842635954,702034.264974884,0.422338930075057,66,Longer,Index,66,L,Index
225,Temporal,3421,3,1,39,1200,6.66666666666667,7.5,1,r,r,0,1600,0,1200,L,S,=,0.215755825134581,0.312702924520733,1.76221884339316,1.94536818606233,1.21497341406571,702035.826034122,702036.057207321,702036.057207321,702038.457073373,2.4,702040.257035628,702040.257035628,702041.856898087,1.6,702043.959426189,702044.369042143,0.4096159535693,78,Shorter,Middle,78,S,Middle
225,Temporal,3421,3,1,40,1600,5,5,2,r,r,0,1200,0,1600,L,S,=,0.472406642376499,0.250026749213142,1.67568191424761,1.86807576761784,1.68731087989551,702045.742749069,702046.227282511,702046.227282511,702048.62707542,2.4,702050.337320218,702050.337320218,702053.537253382,3.2,702055.559473512,702056.649010357,1.08953684510197,66,Longer,Index,66,L,Index
225,Temporal,3421,3,1,41,1200,10,5,1,l,l,-1600,0,-1600,-400,=,L,S,0.255952589706962,0.321261195866602,1.21009736816869,1.47420158851797,1.13252467185723,702058.492867926,702058.767433467,702058.767433467,702060.367272508,1.6,702061.597280323,702061.597280323,702063.997269242,2.4,702065.609520574,702066.089036394,0.479515819693916,78,Longer,Middle,66,=,Index
225,Temporal,3421,3,1,42,800,15,5,1,l,l,-1600,-400,-1600,-800,L,S,=,0.348623199422517,0.303632316030494,1.89759167860326,1.34558598786229,1.70383463496322,702067.376216883,702067.737573844,702067.737573844,702068.53738459,0.8,702070.467633263,702070.467633263,702072.067528765,1.6,702073.559614345,702074.168825024,0.609210679074749,66,Longer,Index,78,S,Middle
225,Temporal,3421,3,1,43,400,5,5,2,r,r,0,800,0,400,S,=,L,0.239414166482587,0.360708973609648,1.17817281998385,1.7425478054699,1.49900125665765,702076.042990377,702076.29778488,702076.29778488,702077.897624563,1.6,702079.107771195,702079.107771195,702079.907617871,0.8,702081.793018634,702082.225022184,0.432003549998626,66,Shorter,Index,66,S,Index
225,Temporal,3421,3,1,44,400,2.5,1.25,2,m,m,-800,0,-800,-400,S,=,L,0.489510340016792,0.367016770447365,1.53024784497519,1.39041759848749,1.48032086853662,702083.876367981,702084.37758955,702084.37758955,702087.577638203,3.2,702089.137762668,702089.137762668,702092.337708343,3.2,702093.876368622,702094.776981547,0.900612924597226,78,Equals to,Middle,77,L,Ring
225,Temporal,3421,3,1,45,1200,5,5,1,l,l,-1600,-800,-1600,-400,=,L,S,0.228303454402629,0.438676921122936,1.36081432313146,1.18776286987526,1.59163666594313,702096.409756107,702096.657877605,702096.657877605,702098.257720495,1.6,702099.648220818,702099.648220818,702102.047774409,2.4,702103.376484395,702103.856919991,0.480435596662574,78,Longer,Middle,78,L,Middle
225,Temporal,3421,3,1,46,400,3.33333333333333,1.25,2,r,r,0,800,0,400,=,L,S,0.390644916550801,0.365043853212818,1.1983629483198,1.90488521731019,1.89211070506296,702105.593154531,702105.998307082,702105.998307082,702108.398120523,2.4,702109.628423796,702109.628423796,702112.82799702,3.2,702114.876504642,702115.30506938,0.428564737550914,78,Longer,Middle,78,L,Middle
225,Temporal,3421,3,1,47,400,2.5,5,2,m,m,-800,-400,-800,-400,S,=,L,0.205240700638363,0.323239883802612,1.28774002053867,1.79066496504743,1.76195955971112,702117.376593184,702117.597999561,702117.597999561,702119.198029158,1.6,702120.508487739,702120.508487739,702121.308286294,0.8,702123.243292422,702123.656859745,0.413567322306335,66,Shorter,Index,66,S,Index
225,Temporal,3421,3,1,48,1200,5,5,1,r,r,0,800,0,1200,L,S,=,0.24927280093894,0.449512718683441,1.51706838914184,1.46126631767821,1.56612175511666,702125.576652147,702125.838345822,702125.838345822,702127.438322166,1.6,702128.988427338,702128.988427338,702131.388276067,2.4,702133.009968606,702133.401083221,0.39111461432185,66,Longer,Index,66,L,Index
225,Temporal,3421,3,1,49,800,7.5,3.33333333333333,1,l,l,-1600,-400,-1600,-800,S,=,L,0.242791566771273,0.277358277745483,1.00694471575081,1.46735154035158,1.49811660243067,702149.876818066,702150.13896311,702150.13896311,702151.738534601,1.6,702152.779076019,702152.779076019,702155.178546202,2.4,702156.793482327,702157.313024953,0.519542625988834,77,Longer,Ring,77,L,Ring
225,Temporal,3421,3,1,50,800,7.5,3.33333333333333,1,r,r,0,1200,0,800,=,L,S,0.406301418574978,0.399910021205618,1.02998118346762,1.83020180342037,1.06642997125727,702158.96015958,702159.379011666,702159.379011666,702160.978894657,1.6,702162.039149688,702162.039149688,702164.438677294,2.4,702166.426880205,702166.912894194,0.486013988265768,78,Longer,Middle,66,=,Index
225,Temporal,3421,3,1,51,800,2.5,3.33333333333333,1,l,l,-1600,-1200,-1600,-800,S,=,L,0.480411340562554,0.242602532347759,1.21071956766776,1.419042167345,1.75335105920823,702168.126879179,702168.618982589,702168.618982589,702170.218793399,1.6,702171.449307119,702171.449307119,702173.848890865,2.4,702175.410092308,702177.505013496,2.09492118854541,77,Longer,Ring,78,=,Middle
225,Temporal,3421,3,1,52,800,3.75,3.33333333333333,1,r,r,0,1200,0,800,S,=,L,0.483615117858737,0.481743560691622,1.63796635242893,1.45767501279412,1.1615649676978,702179.410341892,702179.909388744,702179.909388744,702183.109049226,3.2,702184.779259839,702184.779259839,702187.179096377,2.4,702188.777003361,702189.177063544,0.400060182437301,66,Shorter,Index,66,S,Index
225,Temporal,3421,3,1,53,800,5,5,1,l,l,-1600,-400,-1600,-800,L,S,=,0.289180058124478,0.40086218571854,1.50686538394176,1.46690850905424,1.07122191489634,702190.493711957,702190.799541593,702190.799541593,702193.199392888,2.4,702194.729558923,702194.729558923,702196.329422024,1.6,702197.943781261,702198.481089034,0.537307772785425,78,Shorter,Middle,78,S,Middle
225,Temporal,3421,3,1,54,800,1.25,3.33333333333333,1,l,l,-1600,-1200,-1600,-800,=,L,S,0.334163447915599,0.432131980930226,1.12205209766508,1.60411886184509,1.6725397553036,702199.693785356,702200.039599453,702200.039599453,702203.23950182,3.2,702204.399692819,702204.399692819,702206.799515563,2.4,702208.543808422,702209.03312571,0.489317288156599,77,Shorter,Ring,77,S,Ring
225,Temporal,3421,3,1,55,1200,10,7.5,1,m,m,-800,0,-800,400,S,=,L,0.4349901480937,0.452292600164639,1.02454430193581,1.98764465500584,1.14779764880565,702210.877208162,702211.32964246,702211.32964246,702212.129496193,0.8,702213.179795771,702213.179795771,702214.779680045,1.6,702216.910585004,702217.489076366,0.578491361695342,77,Longer,Ring,77,L,Ring
225,Temporal,3421,3,1,56,1200,2.5,5,1,r,r,0,800,0,1200,L,S,=,0.302632553606096,0.418095957877166,1.21115078775035,1.75255195633249,1.15098018453142,702218.793927279,702219.109857051,702219.109857051,702222.309834485,3.2,702223.549787167,702223.549787167,702225.94966541,2.4,702227.843931353,702228.369135175,0.525203821714967,78,Shorter,Middle,78,S,Middle
225,Temporal,3421,3,1,57,1200,10,7.5,1,l,l,-1600,-800,-1600,-400,S,=,L,0.34148974969467,0.205916906806978,1.057314555282,1.75178230701429,1.19016899477188,702229.693960514,702230.049951418,702230.049951418,702230.84978077,0.8,702231.930264944,702231.930264944,702233.529819433,1.6,702235.427376304,702235.888946633,0.4615703294985,77,Longer,Ring,77,L,Ring
225,Temporal,3421,3,1,58,800,3.75,3.33333333333333,1,l,l,-1600,-400,-1600,-800,S,=,L,0.326154332271078,0.281553320605614,1.0470078829062,1.54570681303288,1.20993561792053,702237.244055055,702237.589889041,702237.589889041,702240.789913634,3.2,702241.870337497,702241.870337497,702244.270153183,2.4,702245.960732853,702246.465029677,0.504296824103221,66,Shorter,Index,66,S,Index
225,Temporal,3421,3,1,59,800,1.66666666666667,5,1,m,m,-800,-400,-800,0,L,S,=,0.210702371565887,0.397101291211094,1.43347697336085,1.69466946327295,1.39099081012116,702247.827428862,702248.050478817,702248.050478817,702250.450331395,2.4,702251.910524383,702251.910524383,702253.510063153,1.6,702255.360772825,702255.905179223,0.544406397384591,78,Shorter,Middle,78,S,Middle
225,Temporal,3421,3,1,60,1600,20,20,2,l,l,-1600,0,-1600,0,L,S,=,0.454614874442715,0.239507826035697,1.85176461446915,1.33677269804584,1.28557202748514,702257.444188124,702257.910569616,702257.910569616,702258.710423029,0.8,702260.590638114,702260.590638114,702261.390477091,0.8,702262.877496563,702263.305083495,0.4275869326666,77,Equals to,Ring,77,=,Ring
225,Temporal,3421,3,1,61,1200,3.33333333333333,7.5,1,l,l,-1600,-800,-1600,-400,S,=,L,0.207103950532218,0.23632034899714,1.64022719751237,1.76581914640924,1.91538934553871,702264.744239195,702264.970316773,702264.970316773,702267.370332319,2.4,702269.030705534,702269.030705534,702270.630582108,1.6,702272.544286876,702273.113116766,0.568829889874905,66,Shorter,Index,66,S,Index
225,Temporal,3421,3,1,62,1200,5,5,1,r,r,0,800,0,1200,S,=,L,0.242030182315184,0.446397676325012,1.26840077758278,1.74993074084186,1.38436361697709,702275.177651895,702275.430898528,702275.430898528,702277.030651915,1.6,702278.330686029,702278.330686029,702280.730552081,2.4,702282.627618307,702283.089061416,0.461443109321408,77,Longer,Ring,77,L,Ring
225,Temporal,3421,3,1,63,800,1.66666666666667,5,1,r,r,0,400,0,800,S,=,L,0.446895360095455,0.344601509987693,1.66499541527004,1.50955638207445,1.68021130342253,702284.627710698,702285.09098843,702285.09098843,702287.49054972,2.4,702289.191050152,702289.191050152,702290.79089978,1.6,702292.444420075,702294.041280822,1.59686074708588,66,Shorter,Index,66,S,Index
225,Temporal,3421,3,1,64,1200,2.5,5,1,l,l,-1600,-800,-1600,-400,=,L,S,0.302114614461737,0.279923899606299,1.39144565394102,1.07701562041403,1.71479940796259,702295.911107005,702296.231085299,702296.231085299,702299.430963606,3.2,702300.851063382,702300.851063382,702303.250949324,2.4,702304.47776841,702305.01710485,0.539336440037005,77,Shorter,Ring,77,S,Ring
225,Temporal,3421,3,1,65,1600,7.5,20,2,l,l,-1600,-400,-1600,0,S,=,L,0.271057420533592,0.359595624117782,1.51576967369607,1.82352778583776,1.0718603265124,702306.89448432,702307.181260554,702307.181260554,702308.781127504,1.6,702310.321136069,702310.321136069,702311.121045943,0.8,702313.094548331,702313.713011671,0.618463340681046,66,Shorter,Index,66,S,Index
225,Temporal,3421,3,1,66,800,7.5,3.33333333333333,1,m,m,-800,400,-800,0,S,=,L,0.304881091352041,0.397819457290806,1.83756835012996,1.26560151325765,1.91693083727947,702314.92790581,702315.251496016,702315.251496016,702316.851351738,1.6,702318.711145841,702318.711145841,702321.11113059,2.4,702322.527906259,702324.120979948,1.59307368891314,77,Longer,Ring,66,S,Index
225,Temporal,3421,3,1,67,1200,10,5,1,l,l,-1600,0,-1600,-400,=,L,S,0.319514801595905,0.472307727628737,1.48709958451528,1.92890539501818,1.90107045020048,702326.194646069,702326.531396862,702326.531396862,702328.131431913,1.6,702329.651399647,702329.651399647,702332.051464917,2.4,702334.127975681,702334.729128772,0.601153091294691,78,Longer,Middle,78,L,Middle
225,Temporal,3421,3,1,68,800,2.5,3.33333333333333,1,m,m,-800,-400,-800,0,=,L,S,0.309318387171842,0.214115458888802,1.13097194372446,1.28733365307934,1.52686222776268,702336.77806265,702337.101716696,702337.101716696,702338.701520127,1.6,702339.861833032,702339.861833032,702342.261640056,2.4,702343.694693226,702344.129182218,0.434488991042599,78,Longer,Middle,78,L,Middle
225,Temporal,3421,3,1,69,1200,3.33333333333333,7.5,1,l,l,-1600,-800,-1600,-400,=,L,S,0.474397468683023,0.49070067897045,1.26177721059956,1.53129000479233,1.07982783926947,702345.794726119,702346.281723599,702346.281723599,702348.681701291,2.4,702349.972022157,702349.972022157,702351.571826872,1.6,702353.261492861,702353.649186157,0.387693296419457,77,Shorter,Ring,77,S,Ring
225,Temporal,3421,3,1,70,1200,10,5,1,l,l,-1600,0,-1600,-400,L,S,=,0.278536485466351,0.239704879839888,1.30024474259354,1.23458997913288,1.1240031009869,702354.878128222,702355.171894093,702355.171894093,702356.771784141,1.6,702358.112002255,702358.112002255,702360.511841039,2.4,702361.894811538,702363.833017343,1.93820580479223,66,Longer,Index,66,L,Index
225,Temporal,3421,3,1,71,800,1.25,3.33333333333333,1,m,m,-800,-400,-800,0,=,L,S,0.260825642445649,0.443241812427813,1.75408209371974,1.4997523844221,1.13626458130177,702365.111619665,702365.392283893,702365.392283893,702368.591821187,3.2,702370.382157131,702370.382157131,702372.782019655,2.4,702374.428299845,702375.193158509,0.764858664246276,77,Shorter,Ring,66,=,Index
225,Temporal,3421,3,1,72,400,1.25,1.25,2,r,r,0,400,0,400,S,=,L,0.323656136558315,0.467391204247786,1.20266068832388,1.1486919901453,1.75925587703897,702376.494991316,702376.832163323,702376.832163323,702380.03205767,3.2,702381.262296783,702381.262296783,702384.462329075,3.2,702385.761643033,702386.31310772,0.551464686519466,78,Equals to,Middle,78,=,Middle
225,Temporal,3421,3,1,73,1200,3.33333333333333,7.5,1,m,m,-800,0,-800,400,=,L,S,0.323497165606803,0.457642602393858,1.72844791596829,1.54748539346941,1.68733728194589,702398.228442897,702398.562502161,702398.562502161,702400.962367571,2.4,702402.72274316,702402.72274316,702404.322612356,1.6,702406.028449698,702406.505265967,0.476816269569099,77,Shorter,Ring,77,S,Ring
225,Temporal,3421,3,1,74,800,5,5,1,r,r,0,1200,0,800,L,S,=,0.220958074908872,0.444439366092746,1.68027719511377,1.62610753498757,1.832569484705,702408.345207184,702408.582800917,702408.582800917,702410.982768343,2.4,702412.692765481,702412.692765481,702414.292692743,1.6,702416.061839428,702416.5132055,0.451366071822122,78,Shorter,Middle,78,S,Middle
225,Temporal,3421,3,1,75,400,1.25,1.25,2,r,r,0,400,0,400,L,S,=,0.420610739063872,0.358825929296232,1.26981838483673,1.84489211817358,1.20486509439352,702418.49526111,702418.933108534,702418.933108534,702422.132943854,3.2,702423.432761747,702423.432761747,702426.632862691,3.2,702428.628614077,702429.097197921,0.468583844602108,77,Equals to,Ring,66,L,Index
225,Temporal,3421,3,1,76,400,10,5,2,r,r,0,800,0,400,L,S,=,0.217751160515253,0.352884223890389,1.42663776722363,1.8200248622105,1.82232445361751,702430.445345578,702430.683302459,702430.683302459,702431.482777967,0.8,702432.933053036,702432.933053036,702433.73303894,0.8,702435.695311733,702436.137174362,0.441862628678791,77,Equals to,Ring,66,L,Index
225,Temporal,3421,3,1,77,1200,20,7.5,1,m,m,-800,800,-800,400,L,S,=,0.314457341175498,0.210731418436053,1.28825699556461,1.07312792732915,1.96763459329856,702438.112072555,702438.443123657,702438.443123657,702439.242973862,0.8,702440.563256687,702440.563256687,702442.1630367,1.6,702443.378748616,702443.85717952,0.478430903982371,66,Longer,Index,77,=,Ring
225,Temporal,3421,3,1,78,1600,5,5,2,r,r,0,1200,0,1600,=,L,S,0.255693830289428,0.270601432839059,1.52408915580742,1.08618918166333,1.93909853605647,702445.978782787,702446.253357631,702446.253357631,702448.653239723,2.4,702450.203579081,702450.203579081,702453.403147493,3.2,702454.628770308,702455.153224094,0.52445378631819,78,Longer,Middle,78,L,Middle
225,Temporal,3421,3,1,79,800,5,5,1,r,r,0,400,0,800,S,=,L,0.213910461252253,0.29042455030041,1.2649597512684,1.32338805694834,1.1061020319627,702457.245517592,702457.473393586,702457.473393586,702458.273314688,0.8,702459.573512732,702459.573512732,702461.173347923,1.6,702462.645554591,702463.137198101,0.4916435101768,77,Longer,Ring,77,L,Ring
225,Temporal,3421,3,1,80,800,5,5,1,l,l,-1600,-400,-1600,-800,S,=,L,0.296501848873172,0.374662926518383,1.83016061993509,1.17106902764699,1.14508334741154,702464.395575368,702464.70354668,702464.70354668,702467.103477534,2.4,702468.953781988,702468.953781988,702470.553396146,1.6,702471.862214189,702472.465208043,0.602993854088709,66,Shorter,Index,66,S,Index
225,Temporal,3421,3,1,81,800,1.25,3.33333333333333,1,m,m,-800,-400,-800,0,L,S,=,0.308861684428366,0.465626844891883,1.15332139932162,1.42924841427259,1.33778354218689,702473.76225769,702474.083605489,702474.083605489,702477.283496628,3.2,702478.463810905,702478.463810905,702480.863752987,2.4,702482.445684308,702483.193120013,0.747435705037788,78,Shorter,Middle,66,L,Index
225,Temporal,3421,3,1,82,400,5,5,2,r,r,0,400,0,400,=,L,S,0.290290400697902,0.257581544145364,1.37730200334888,1.51881488473863,1.12899925790595,702484.695703753,702485.003766172,702485.003766172,702485.803758492,0.8,702487.204051301,702487.204051301,702488.003930699,0.8,702489.662357973,702490.185286345,0.52292837202549,66,Equals to,Index,66,=,Index
225,Temporal,3421,3,1,83,800,5,5,1,r,r,0,400,0,800,S,=,L,0.455039747470357,0.411641074805033,1.09319928331102,1.49053867931583,1.39906752591563,702491.462426047,702491.933957698,702491.933957698,702492.733853456,0.8,702493.853976587,702493.853976587,702495.453889733,1.6,702497.079115035,702497.577286052,0.498171017155983,77,Longer,Ring,77,L,Ring
225,Temporal,3421,3,1,84,800,2.5,3.33333333333333,1,l,l,-1600,-1200,-1600,-800,=,L,S,0.410813882000059,0.317422365865642,1.06910664364296,1.36592583455165,1.48699009818795,702499.129158799,702499.554024322,702499.554024322,702501.153893518,1.6,702502.244115962,702502.244115962,702504.644154606,2.4,702506.162446194,702506.849072529,0.686626335373148,78,Longer,Middle,78,L,Middle
225,Temporal,3421,3,1,85,1200,3.33333333333333,7.5,1,l,l,-1600,-800,-1600,-400,S,=,L,0.475287494772358,0.230357945245241,1.06017709329289,1.93345242512118,1.22569666195064,702508.479207432,702508.974216444,702508.974216444,702511.374051058,2.4,702512.474437797,702512.474437797,702514.074349019,1.6,702516.162525752,702516.585339149,0.422813396435231,66,Shorter,Index,66,S,Index
225,Temporal,3421,3,1,86,800,7.5,3.33333333333333,1,m,m,-800,400,-800,0,=,L,S,0.370799133245882,0.444827229421038,1.97249625218241,1.31269342917029,1.77734810014989,702517.962587731,702518.344380752,702518.344380752,702519.944269197,1.6,702521.954513096,702521.954513096,702524.354426948,2.4,702525.812578396,702526.889240167,1.07666177116334,78,Longer,Middle,66,=,Index
225,Temporal,3421,3,1,87,1200,5,5,1,r,r,0,1600,0,1200,L,S,=,0.209800357483541,0.459251905065755,1.45235129950605,1.7850311852016,1.86813676543438,702528.829327156,702529.054476332,702529.054476332,702532.254376774,3.2,702533.734713572,702533.734713572,702536.134576095,2.4,702538.062719993,702539.121339888,1.05861989490222,78,Shorter,Middle,77,=,Ring
225,Temporal,3421,3,1,88,800,2.5,3.33333333333333,1,l,l,-1600,-1200,-1600,-800,=,L,S,0.338555620164437,0.483712177791494,1.6609518799327,1.28522583330975,1.02409023795749,702541.146071489,702541.504854333,702541.504854333,702543.10470781,1.6,702544.78485527,702544.78485527,702547.184731267,2.4,702548.612727954,702549.081239618,0.468511663959362,78,Longer,Middle,78,L,Middle
225,Temporal,3421,3,1,89,800,15,5,1,m,m,-800,400,-800,0,S,=,L,0.219604882063354,0.205244837788316,1.70041819592044,1.33730825003479,1.66121310534107,702550.246154063,702550.484855527,702550.484855527,702551.284659215,0.8,702553.014809145,702553.014809145,702554.614676417,1.6,702556.096184519,702556.585301294,0.489116775454022,77,Longer,Ring,77,L,Ring
225,Temporal,3421,3,1,90,1200,2.5,5,1,r,r,0,800,0,1200,=,L,S,0.494916530358658,0.229748182645908,1.70675768985905,1.52539406287598,1.50482570844326,702558.412845111,702558.925067628,702558.925067628,702562.124959088,3.2,702563.865085965,702563.865085965,702566.264954584,2.4,702567.92959048,702569.681188097,1.75159761693794,77,Shorter,Ring,66,=,Index
225,Temporal,3421,3,1,91,800,3.75,3.33333333333333,1,r,r,0,1200,0,800,=,L,S,0.37060250372616,0.402378331905972,1.84999223191538,1.89926829773127,1.96995478161438,702571.329622294,702571.715174475,702571.715174475,702574.915090636,3.2,702576.795307646,702576.795307646,702579.195172415,2.4,702581.246341968,702582.193157226,0.946815258008428,77,Shorter,Ring,66,=,Index
225,Temporal,3421,3,1,92,1600,5,5,2,m,m,-800,800,-800,800,=,L,S,0.438300658518839,0.259078469712982,1.64712561009517,1.24426026454745,1.6651115913241,702584.313040351,702584.765381617,702584.765381617,702587.965398189,3.2,702589.64547379,702589.64547379,702592.845389309,3.2,702594.246369001,702594.825257781,0.578888779855333,66,Equals to,Index,78,L,Middle
225,Temporal,3421,3,1,93,1200,5,5,1,m,m,-800,800,-800,400,L,S,=,0.204240319634962,0.324002313363169,1.15731534983481,1.84581252723906,1.51359418538795,702596.646245364,702596.865520332,702596.865520332,702600.065402488,3.2,702601.25584096,702601.25584096,702603.655651193,2.4,702605.646439449,702606.393315638,0.746876188903116,78,Shorter,Middle,78,S,Middle
225,Temporal,3421,3,1,94,800,1.66666666666667,5,1,m,m,-800,-400,-800,0,=,L,S,0.355713623157357,0.304013795109826,1.2913445021741,1.85185332286969,1.05361976924038,702608.063158246,702608.435768947,702608.435768947,702610.835618638,2.4,702612.15597589,702612.15597589,702613.75581076,1.6,702615.746517853,702616.19322299,0.446705137263052,77,Shorter,Ring,77,S,Ring
225,Temporal,3421,3,1,95,1200,10,7.5,1,l,l,-1600,-800,-1600,-400,=,L,S,0.405716941657536,0.292345117190866,1.51656793638912,1.29663228655213,1.98611960810259,702617.396590707,702617.815951586,702617.815951586,702618.615852477,0.8,702620.165900867,702620.165900867,702621.765908971,1.6,702623.213292064,702623.721283555,0.507991491351277,78,Longer,Middle,78,L,Middle
225,Temporal,3421,3,1,96,400,2.5,1.25,2,m,m,-800,0,-800,-400,L,S,=,0.236453027840973,0.202053298391251,1.49242293079565,1.817843569593,1.80057512268277,702625.863063353,702626.116090237,702626.116090237,702629.315901496,3.2,702630.836031876,702630.836031876,702634.036140519,3.2,702635.996657562,702637.649280794,1.65262323128991,77,Equals to,Ring,77,=,Ring
