Subject,Task,SequenceOrder,ListNo,RunNo,TrialNo,Aud_Probe_Dist,Aud_Standard_Vel,Aud_Probe_Vel,Main_Control,Aud_Std_StartCode,Aud_Probe_StartCode,Aud_Std_StartPt,Aud_Std_EndPt,Aud_Probe_StartPt,Aud_Probe_EndPt,RespIndex,RespMiddle,RespRing,ISI_Cross_Std,ISI_Cross_Probe,ISI_Std_Probe,ISI_Probe_Response,ITI,TrialOnset,StdOnset,StdOnsetByStop,StdOffset,StdDur,ProbeOnset,ProbeOnsetByStop,ProbeOffset,ProbeDur,RespWinStart,RespTime,RT,CorrectKC,CorrectResponse,CorrectFinger,SubjRespKC,SubjResponse,SubjRespFinger
212,Temporal,2314,4,4,1,1200,5,5,1,m,m,-800,800,-800,400,L,S,=,0.214588969488534,0.415635591577332,1.03239969739645,1.01436190673289,1.25885369097195,20401.8652145906,20402.0908163244,20402.0908163244,20405.2896975355,3.2,20406.3499530732,20406.3499530732,20408.7498437183,2.4,20409.9152518938,20410.4771557222,0.561903828362119,78,Shorter,Middle,78,S,Middle
212,Temporal,2314,4,4,2,1600,7.5,20,2,r,r,0,1200,0,1600,=,L,S,0.34624456916397,0.349516322745811,1.17137663010073,1.13825204918441,1.6579212615454,20411.881942787,20412.2400702042,20412.2400702042,20413.83991228,1.6,20415.0400992047,20415.0400992047,20415.8398888615,0.8,20417.1152835629,20417.5332392102,0.417955647262716,77,Shorter,Ring,77,S,Ring
212,Temporal,2314,4,4,3,800,7.5,3.33333333333333,1,l,l,-1600,-400,-1600,-800,S,=,L,0.469246300601887,0.490375423373758,1.42808396373978,1.03916903954115,1.59054095067652,20419.331974418,20419.8203562437,20419.8203562437,20421.4198897084,1.6,20422.8802768389,20422.8802768389,20425.2801411783,2.4,20426.4653033884,20426.9252359175,0.459932529018261,77,Longer,Ring,77,L,Ring
212,Temporal,2314,4,4,4,1200,5,5,1,m,m,-800,0,-800,400,L,S,=,0.404713752429607,0.427978076101047,1.44487416653005,1.51866713024694,1.38825198919652,20428.6653433603,20429.0902767362,20429.0902767362,20430.6901030928,1.6,20432.1603638531,20432.1603638531,20434.5600777366,2.4,20436.232026452,20436.6613686292,0.429342177190847,66,Longer,Index,66,L,Index
212,Temporal,2314,4,4,5,800,5,5,1,l,l,-1600,-1200,-1600,-800,=,L,S,0.238159932173532,0.410976180680091,1.53418492037543,1.99020563861989,1.88809212793855,20438.1987269312,20438.4505468126,20438.4505468126,20439.2503579632,0.8,20440.8105515862,20440.8105515862,20442.4103372009,1.6,20444.5487429071,20445.1411289391,0.592386032043578,78,Longer,Middle,78,L,Middle
212,Temporal,2314,4,4,6,800,1.66666666666667,5,1,l,l,-1600,-1200,-1600,-800,S,=,L,0.495466232704422,0.45724085236416,1.25092850173187,1.83498435564234,1.9814077766411,20447.1821068449,20447.6903498148,20447.6903498148,20450.0903758383,2.4,20451.3607210977,20451.3607210977,20452.9605480958,1.6,20454.9487923747,20455.3572516547,0.408459280020907,66,Shorter,Index,66,S,Index
212,Temporal,2314,4,4,7,800,1.66666666666667,5,1,r,r,0,400,0,800,=,L,S,0.269443433562239,0.257744233172267,1.45573024552482,1.06685844904119,1.31588578822024,20457.4988181671,20457.7807927519,20457.7807927519,20460.1806365601,2.4,20461.6704495328,20461.6704495328,20463.2705164905,1.6,20464.4821515646,20465.629193197,1.1470416323391,77,Shorter,Ring,77,S,Ring
212,Temporal,2314,4,4,8,800,15,5,1,m,m,-800,400,-800,0,S,=,L,0.30364484683758,0.244882231075679,1.36004055713546,1.84944299977474,1.73606999407053,20467.0988521079,20467.4208062641,20467.4208062641,20468.2208025171,0.8,20469.6109151826,20469.6109151826,20471.2108223812,1.6,20473.2155215335,20473.6931539668,0.477632433292456,77,Longer,Ring,77,L,Ring
212,Temporal,2314,4,4,9,1200,10,5,1,r,r,0,1600,0,1200,L,S,=,0.205428714809438,0.457273684391319,1.37501965963929,1.81501240368355,1.50052399308315,20475.582226568,20475.8008527932,20475.8008527932,20477.40081934,1.6,20478.8006465178,20478.8006465178,20481.2007742353,2.4,20483.1655666382,20483.6130648994,0.447498261255532,66,Longer,Index,66,L,Index
212,Temporal,2314,4,4,10,1200,5,5,1,m,m,-800,800,-800,400,S,=,L,0.456253897277883,0.277846641839437,1.37470902520002,1.3785207695609,1.55364230244906,20485.2656342631,20485.7410701426,20485.7410701426,20488.9409923547,3.2,20490.3413385893,20490.3413385893,20492.7408349694,2.4,20494.2656156567,20494.6929480122,0.427332355531689,66,Shorter,Index,66,S,Index
212,Temporal,2314,4,4,11,400,10,5,2,l,l,-1600,-800,-1600,-1200,L,S,=,0.332979684143657,0.312133717767058,1.70212475791307,1.90002251606631,1.89073751271873,20496.3989888977,20496.7510743387,20496.7510743387,20497.550952216,0.8,20499.2813195081,20499.2813195081,20500.0811627388,0.8,20502.1323672074,20502.5809305298,0.448563322373957,77,Equals to,Ring,77,=,Ring
212,Temporal,2314,4,4,12,1600,6.66666666666667,5,2,m,m,-800,800,-800,800,S,=,L,0.465453146589028,0.299911631258444,1.08838597993965,1.69552034860114,1.20608210886006,20504.615757285,20505.1014123994,20505.1014123994,20507.5012927789,2.4,20508.6212587868,20508.6212587868,20511.821061019,3.2,20513.6657068285,20514.0770626256,0.411355797139549,77,Longer,Ring,77,L,Ring
212,Temporal,2314,4,4,13,1200,10,7.5,1,r,r,0,800,0,1200,=,L,S,0.350437330153789,0.250433184430578,1.06791581895257,1.24275006742865,1.68897548777151,20515.4324237968,20515.8014443512,20515.8014443512,20516.6012872611,0.8,20517.7013898791,20517.7013898791,20519.3012823208,1.6,20520.6824398369,20521.1331217326,0.450681895759772,78,Longer,Middle,78,L,Middle
212,Temporal,2314,4,4,14,800,7.5,3.33333333333333,1,m,m,-800,400,-800,0,L,S,=,0.437035426653814,0.25166628288784,1.56617841137163,1.21930544939002,1.54449431350718,20522.965797102,20523.4215287092,20523.4215287092,20525.0213380632,1.6,20526.6117316226,20526.6117316226,20529.0115488042,2.4,20530.3824512574,20531.0209945361,0.638543278695579,66,Longer,Index,66,L,Index
212,Temporal,2314,4,4,15,1200,3.33333333333333,7.5,1,l,l,-1600,-800,-1600,-400,=,L,S,0.262501310059609,0.499004734337345,1.1697669276324,1.28931173731228,1.77394905322108,20532.715835919,20532.9915734802,20532.9915734802,20535.3914705414,2.4,20536.5816834253,20536.5816834253,20538.1815498821,1.6,20539.6158456072,20540.2850722702,0.669226662968867,77,Shorter,Ring,77,S,Ring
212,Temporal,2314,4,4,16,400,2.5,5,2,r,r,0,400,0,400,=,L,S,0.48541070880006,0.392817876831225,1.10301297756077,1.62024907124357,1.55289442776249,20542.1992857191,20542.7016840541,20542.7016840541,20544.3016300696,1.6,20545.4319486641,20545.4319486641,20546.2317729675,0.8,20547.9991989586,20549.0129780264,1.01377906782727,77,Shorter,Ring,77,S,Ring
212,Temporal,2314,4,4,17,1200,6.66666666666667,7.5,1,r,r,0,1600,0,1200,S,=,L,0.210156655681156,0.354359253287699,1.63034262578241,1.66362694882744,1.81765916433554,20550.7159157986,20550.9418967199,20550.9418967199,20553.3418258612,2.4,20554.991824347,20554.991824347,20556.5916859917,1.6,20558.3992481053,20559.108977567,0.709729461643292,66,Shorter,Index,66,S,Index
212,Temporal,2314,4,4,18,1600,7.5,20,2,m,m,-800,400,-800,800,=,L,S,0.346685530862028,0.272898153610361,1.10999940007913,1.42300311550245,1.29120734579413,20561.0826230787,20561.4421036369,20561.4421036369,20563.0419341638,1.6,20564.1720134403,20564.1720134403,20564.9718348565,0.8,20566.5326191008,20567.0529858283,0.520366727490909,77,Shorter,Ring,77,S,Ring
212,Temporal,2314,4,4,19,800,5,5,1,l,l,-1600,-400,-1600,-800,=,L,S,0.337030170769492,0.341512246700106,1.76811839970289,1.64911015779469,1.16444711855742,20568.4826818496,20568.8321209986,20568.8321209986,20571.2320036238,2.4,20573.0319428255,20573.0319428255,20574.6319225251,1.6,20576.4327368151,20576.9089953394,0.476258524278819,77,Shorter,Ring,77,S,Ring
212,Temporal,2314,4,4,20,1200,2.5,5,1,l,l,-1600,-800,-1600,-400,=,L,S,0.341550923294761,0.373754368090871,1.60756402727743,1.92317398556924,1.32837640487559,20578.2327171377,20578.5923035604,20578.5923035604,20581.792181181,3.2,20583.4223352042,20583.4223352042,20585.8222114133,2.4,20587.8827431868,20589.092914713,1.2101715261706,77,Shorter,Ring,77,S,Ring
212,Temporal,2314,4,4,21,800,3.75,3.33333333333333,1,m,m,-800,400,-800,0,S,=,L,0.272208142995889,0.22122254146196,1.07656212466056,1.54963656255894,1.20221535588719,20590.5827947075,20590.8726266845,20590.8726266845,20594.072174842,3.2,20595.1724032142,20595.1724032142,20597.5722354735,2.4,20599.2661791548,20599.7011278099,0.434948655110929,66,Shorter,Index,66,S,Index
212,Temporal,2314,4,4,22,400,1.25,1.25,2,r,r,0,400,0,400,S,=,L,0.342144666190793,0.284817474622008,1.49536869481582,1.57656440884633,1.35792737391104,20601.0494971115,20601.4024038044,20601.4024038044,20604.6022759714,3.2,20606.1226128901,20606.1226128901,20609.3225370269,3.2,20611.0495089812,20611.4209185703,0.371409589144605,78,Equals to,Middle,78,=,Middle
212,Temporal,2314,4,4,23,1600,20,20,2,r,r,0,1600,0,1600,=,L,S,0.285594761625545,0.322521340698473,1.83442732532831,1.85252836529985,1.82050836210441,20612.9328411548,20613.232705884,20613.232705884,20614.0326427888,0.8,20615.9027733678,20615.9027733678,20616.702591576,0.8,20618.699610383,20619.0848141533,0.385203770259977,66,Equals to,Index,66,=,Index
212,Temporal,2314,4,4,24,1600,5,5,2,l,l,-1600,-400,-1600,0,S,=,L,0.202979297649878,0.309719235021134,1.58274438775851,1.81122411077539,1.60915315791131,20621.0495724999,20621.2728461769,20621.2728461769,20623.6727069876,2.4,20625.2828346538,20625.2828346538,20628.4828723543,3.2,20630.4491619381,20630.9010208547,0.451858916614583,77,Longer,Ring,77,L,Ring
212,Temporal,2314,4,4,25,400,5,5,2,l,l,-1600,-1200,-1600,-1200,=,L,S,0.483788210897625,0.360066776257995,1.16301568038532,1.89265874256552,1.05149489594563,20663.283116664,20663.7834233246,20663.7834233246,20664.5832800289,0.8,20665.7734723816,20665.7734723816,20666.5733223491,0.8,20668.5997574099,20669.14880572,0.549048310145736,66,Equals to,Index,66,=,Index
212,Temporal,2314,4,4,26,400,2.5,5,2,r,r,0,400,0,400,L,S,=,0.255372487951125,0.482725744637768,1.21180494626118,1.56557636145134,1.03527896093312,20670.3498007181,20670.6235592546,20670.6235592546,20672.223401972,1.6,20673.4634032552,20673.4634032552,20674.2632391075,0.8,20675.9831303301,20676.3568496904,0.373719360242831,78,Shorter,Middle,78,S,Middle
212,Temporal,2314,4,4,27,800,3.75,3.33333333333333,1,l,l,-1600,-400,-1600,-800,S,=,L,0.446129557138547,0.480726707571002,1.26822623656661,1.53821162107393,1.49671890482327,20677.5498586548,20678.0136917841,20678.0136917841,20681.2132694553,3.2,20682.5137306011,20682.5137306011,20684.9136106598,2.4,20686.599920759,20687.0368267338,0.436905974820547,66,Shorter,Index,78,=,Middle
212,Temporal,2314,4,4,28,800,2.5,3.33333333333333,1,r,r,0,400,0,800,=,L,S,0.236304374713175,0.462455394445403,1.473687298989,1.10768729017438,1.94667829624623,20688.683210723,20688.9337291126,20688.9337291126,20690.5336276495,1.6,20692.0437165629,20692.0437165629,20694.443563579,2.4,20695.6998818167,20696.4127259405,0.712844123812829,78,Longer,Middle,78,L,Middle
212,Temporal,2314,4,4,29,1600,15,20,2,r,r,0,1200,0,1600,=,L,S,0.496463460396644,0.424378719583835,1.94383622671901,1.42501320811546,1.48003187824925,20698.4999332733,20699.0138415985,20699.0138415985,20699.8137457815,0.8,20701.7940017554,20701.7940017554,20702.5938600638,0.8,20704.1666634714,20704.8206437075,0.653980236133066,66,Equals to,Index,66,=,Index
212,Temporal,2314,4,4,30,400,5,5,2,r,r,0,400,0,400,=,L,S,0.430562571347606,0.429645695527009,1.08002141794432,1.88229090701977,1.65886707464627,20706.4333131785,20706.8839323725,20706.8839323725,20707.6837810568,0.8,20708.7938532243,20708.7938532243,20709.5936736781,0.8,20711.6332962487,20712.0848051708,0.451508922134963,66,Equals to,Index,66,=,Index
212,Temporal,2314,4,4,31,800,2.5,3.33333333333333,1,m,m,-800,-400,-800,0,=,L,S,0.441795734319151,0.389931163675238,1.42702850801141,1.84397121274486,1.64460121609791,20713.8833373113,20714.3440583448,20714.3440583448,20715.9438644909,1.6,20717.4139321287,20717.4139321287,20719.8137419318,2.4,20721.8167562472,20722.2607523053,0.443996058063931,78,Longer,Middle,78,L,Middle
212,Temporal,2314,4,4,32,1200,10,5,1,r,r,0,1600,0,1200,L,S,=,0.437479990020619,0.451556095955595,1.39235162619533,1.00309357333516,1.24404286770561,20724.0667061894,20724.5242490421,20724.5242490421,20726.1240381856,1.6,20727.5440168331,20727.5440168331,20729.9439600897,2.4,20731.1000470937,20731.8927348716,0.792687777975516,66,Longer,Index,66,L,Index
212,Temporal,2314,4,4,33,1600,3.75,5,2,m,m,-800,400,-800,800,=,L,S,0.310687916139887,0.419853172159299,1.36025172623833,1.11805365241664,1.870290196945,20733.3001015016,20733.6243304615,20733.6243304615,20736.8242363127,3.2,20738.2044621955,20738.2044621955,20741.4040944029,3.2,20742.6667654735,20743.1567535782,0.48998810467674,66,Equals to,Index,66,=,Index
212,Temporal,2314,4,4,34,1200,10,5,1,m,m,-800,800,-800,400,L,S,=,0.481639303333075,0.304532260416616,1.83643060613973,1.07395121601851,1.36247288350557,20745.1834991236,20745.6846126001,20745.6846126001,20747.2841011526,1.6,20749.1544623879,20749.1544623879,20751.554330577,2.4,20752.7668122464,20753.2127398633,0.445927616907284,66,Longer,Index,66,L,Index
212,Temporal,2314,4,4,35,400,5,5,2,l,l,-1600,-800,-1600,-1200,S,=,L,0.466492769982475,0.352633033560216,1.1721487872643,1.00286768519082,1.35774869345061,20754.7335239536,20755.2147262408,20755.2147262408,20756.8142523271,1.6,20758.0246599889,20758.0246599889,20758.8245792495,0.8,20759.9669251014,20760.4366256554,0.469700554043811,66,Shorter,Index,66,S,Index
212,Temporal,2314,4,4,36,1200,20,7.5,1,l,l,-1600,0,-1600,-400,L,S,=,0.238859172774973,0.410341229040406,1.8184882610368,1.35581867176779,1.15609346870322,20761.9335271991,20762.1944926459,20762.1944926459,20762.9943884881,0.8,20764.8545209663,20764.8545209663,20766.4544390721,1.6,20767.9502192999,20769.1327098235,1.18249052352257,66,Longer,Index,77,=,Ring
212,Temporal,2314,4,4,37,1200,10,7.5,1,l,l,-1600,-800,-1600,-400,S,=,L,0.404537792406766,0.462367155972869,1.93914917713409,1.0097443872848,1.78163550850339,20770.4336001761,20770.854912665,20770.854912665,20771.6544684575,0.8,20773.6245309625,20773.6245309625,20775.2245940706,1.6,20776.3670095847,20776.908705014,0.541695429306856,77,Longer,Ring,77,L,Ring
212,Temporal,2314,4,4,38,1600,6.66666666666667,5,2,l,l,-1600,0,-1600,0,=,L,S,0.35578038219772,0.362092293464412,1.83530457264724,1.73863034784538,1.92510732013343,20778.8503075845,20779.2246213644,20779.2246213644,20781.6245912475,2.4,20783.4847108936,20783.4847108936,20786.6848044137,3.2,20788.567030199,20788.9246219033,0.357591704327206,78,Longer,Middle,78,L,Middle
212,Temporal,2314,4,4,39,800,3.75,3.33333333333333,1,m,m,-800,400,-800,0,L,S,=,0.334680035729062,0.21266716825805,1.23328335628246,1.79201393967168,1.01499540939793,20791.0003809647,20791.3549604644,20791.3549604644,20794.5548942253,3.2,20795.8151079305,20795.8151079305,20798.2147948667,2.4,20800.1504396234,20800.7805223419,0.630082718504127,78,Shorter,Middle,78,S,Middle
212,Temporal,2314,4,4,40,1200,20,7.5,1,l,l,-1600,0,-1600,-400,S,=,L,0.462373515496507,0.376296152952757,1.19440011823686,1.97181232775542,1.8258930016174,20801.9504072896,20802.4251261777,20802.4251261777,20803.2250457591,0.8,20804.4453697174,20804.4453697174,20806.0449298086,1.6,20808.167071839,20808.6604784049,0.493406565910846,77,Longer,Ring,77,L,Ring
212,Temporal,2314,4,4,41,400,1.25,1.25,2,r,r,0,400,0,400,=,L,S,0.344774446624516,0.375504610735584,1.27824620927434,1.58484035013938,1.81968756727045,20810.6504616976,20811.0153942779,20811.0153942779,20814.2153091115,3.2,20815.5253333513,20815.5253333513,20818.7252231624,3.2,20820.4504627883,20820.8845143321,0.434051543827081,66,Equals to,Index,66,=,Index
212,Temporal,2314,4,4,42,800,15,5,1,r,r,0,1200,0,800,S,=,L,0.402943607103775,0.43761209056018,1.00732509449407,1.15356758800791,1.39442501342563,20822.8505533185,20823.2656400119,20823.2656400119,20824.0651313233,0.8,20825.1053585791,20825.1053585791,20826.7052397927,1.6,20828.0005001296,20828.4526249907,0.452124861090851,77,Longer,Ring,77,L,Ring
212,Temporal,2314,4,4,43,800,1.25,3.33333333333333,1,m,m,-800,-400,-800,0,L,S,=,0.426586487963599,0.430579093158385,1.7152191455319,1.69697441441653,1.52216082994045,20830.0005322098,20830.4457206742,20830.4457206742,20833.6455209817,3.2,20835.395437599,20835.395437599,20837.7953426802,2.4,20839.6506282063,20840.3244160129,0.673787806539622,78,Shorter,Middle,78,S,Middle
212,Temporal,2314,4,4,44,800,1.25,3.33333333333333,1,m,m,-800,-400,-800,0,L,S,=,0.478416908380766,0.418136895970981,1.53855821208348,1.61607293571809,1.08478861329912,20842.0006473775,20842.4956008228,20842.4956008228,20845.6956093304,3.2,20847.2757192756,20847.2757192756,20849.675585219,2.4,20851.4339392633,20852.6444758616,1.21053659832251,78,Shorter,Middle,78,S,Middle
212,Temporal,2314,4,4,45,1200,3.33333333333333,7.5,1,m,m,-800,0,-800,400,=,L,S,0.318037699986414,0.306271301129837,1.30752508194151,1.19977180831962,1.02228504771293,20853.88398918,20854.2157646754,20854.2157646754,20856.6156501877,2.4,20857.9558012211,20857.9558012211,20859.5555624549,1.6,20860.9007298037,20861.7645672772,0.863837473538297,77,Shorter,Ring,77,S,Ring
212,Temporal,2314,4,4,46,1200,2.5,5,1,l,l,-1600,-800,-1600,-400,=,L,S,0.387745827152614,0.298444092631643,1.54348663248409,1.6330691836276,1.54245633212773,20862.9340867174,20863.3357826274,20863.3357826274,20866.535692649,3.2,20868.1060207135,20868.1060207135,20870.5059434388,2.4,20872.2840341564,20872.7164476875,0.432413531150814,77,Shorter,Ring,77,S,Ring
212,Temporal,2314,4,4,47,1200,3.33333333333333,7.5,1,r,r,0,800,0,1200,=,L,S,0.328768975553545,0.329569263687631,1.74098374031097,1.96628181916945,1.98089629664141,20874.4007731959,20874.7459533837,20874.7459533837,20877.1458180439,2.4,20878.9263262962,20878.9263262962,20880.526082718,1.6,20882.6341609973,20883.5325199731,0.898358975835436,77,Shorter,Ring,77,S,Ring
212,Temporal,2314,4,4,48,1200,5,5,1,m,m,-800,0,-800,400,=,L,S,0.271227642897359,0.446075226302417,1.89861888556717,1.37325107089975,1.79786624797212,20885.6674378736,20885.9562233959,20885.9562233959,20887.5561350857,1.6,20889.4763767904,20889.4763767904,20891.8760592354,2.4,20893.3841306535,20893.7805967679,0.396466114376381,78,Longer,Middle,78,L,Middle
212,Temporal,2314,4,4,49,400,10,5,2,r,r,0,800,0,400,S,=,L,0.41469734774548,0.495331200992109,1.98451762945235,1.64649498675361,1.66122495757337,20915.3342784147,20915.7666871081,20915.7666871081,20916.5665884039,0.8,20918.5867995683,20918.5867995683,20919.3865548994,0.8,20921.1842616688,20921.6204045179,0.436142849077442,78,Equals to,Middle,78,=,Middle
212,Temporal,2314,4,4,50,400,1.66666666666667,1.25,2,l,l,-1600,-1200,-1600,-1200,L,S,=,0.278877367753589,0.228504418254738,1.90224168616934,1.46745618099207,1.21728439244067,20923.4509763916,20923.7469042395,20923.7469042395,20926.1464561182,2.4,20928.0868746359,20928.0868746359,20931.2867079859,3.2,20932.9009826793,20933.3564839766,0.455501297321462,66,Longer,Index,66,L,Index
212,Temporal,2314,4,4,51,400,3.33333333333333,1.25,2,l,l,-1600,-800,-1600,-1200,L,S,=,0.437621166800925,0.409517754764287,1.54709488118592,1.61199780121126,1.35007339414684,20934.7343663785,20935.1869255792,20935.1869255792,20937.5867632921,2.4,20939.1669537584,20939.1669537584,20942.3667232689,3.2,20944.1344494462,20944.6442917215,0.509842275296251,66,Longer,Index,66,L,Index
212,Temporal,2314,4,4,52,800,1.66666666666667,5,1,m,m,-800,-400,-800,0,S,=,L,0.400026831700572,0.419604210818109,1.48615885552104,1.46820958716579,1.19859174443207,20946.1510785989,20946.5671453411,20946.5671453411,20948.9670632544,2.4,20950.4870344592,20950.4870344592,20952.0871023793,1.6,20953.7010784065,20954.1964870948,0.495408688333555,66,Shorter,Index,66,S,Index
212,Temporal,2314,4,4,53,1600,5,5,2,l,l,-1600,0,-1600,0,L,S,=,0.428863056121326,0.262950388715868,1.9005992361118,1.79754881268698,1.96309772183172,20955.5508775205,20955.9972904845,20955.9972904845,20959.1971504611,3.2,20961.1372257211,20961.1372257211,20964.3372201135,3.2,20966.284539704,20966.7722626646,0.487722960606334,77,Equals to,Ring,77,=,Ring
212,Temporal,2314,4,4,54,800,2.5,3.33333333333333,1,r,r,0,400,0,800,S,=,L,0.419890188730474,0.233674538121281,1.79379248017691,1.49099975604807,1.8955570710957,20968.901175481,20969.3372185351,20969.3372185351,20970.9370939743,1.6,20972.7570752523,20972.7570752523,20975.1571108998,2.4,20976.7845236995,20977.1725386181,0.388014918553381,77,Longer,Ring,77,L,Ring
212,Temporal,2314,4,4,55,1200,5,5,1,l,l,-1600,-800,-1600,-400,L,S,=,0.356055034557366,0.452097881765494,1.22030112707517,1.90612312995107,1.23249297844778,20979.2345505185,20979.6075926411,20979.6075926411,20981.2074376041,1.6,20982.4575290582,20982.4575290582,20984.8574437635,2.4,20986.9013061084,20988.0523060498,1.15099994144111,66,Longer,Index,66,L,Index
212,Temporal,2314,4,4,56,1200,5,5,1,l,l,-1600,-800,-1600,-400,L,S,=,0.448257223861513,0.423934140142184,1.74443399606655,1.31528499984665,1.34810751021411,20989.4346126257,20989.8975532851,20989.8975532851,20991.4975461377,1.6,20993.2777043955,20993.2777043955,20995.677337437,2.4,20997.1346772993,20997.6442336564,0.50955635713035,66,Longer,Index,66,L,Index
212,Temporal,2314,4,4,57,400,2.5,1.25,2,r,r,0,800,0,400,S,=,L,0.451750145872809,0.284746512918271,1.43389187274996,1.289354223793,1.06439529010659,20999.1513358818,20999.6178191526,20999.6178191526,21002.8176602019,3.2,21004.2877900752,21004.2877900752,21007.4876394653,3.2,21008.9180169204,21009.5083411609,0.590324240532937,78,Equals to,Middle,78,=,Middle
212,Temporal,2314,4,4,58,400,1.66666666666667,1.25,2,r,r,0,400,0,400,=,L,S,0.320718314445538,0.381163179821532,1.5092310692947,1.51379171205489,1.74778807900791,21010.7347157313,21011.0677782825,21011.0677782825,21013.4677584313,2.4,21015.0078233615,21015.0078233615,21018.2076929621,3.2,21019.8680645915,21020.3322897659,0.464225174451713,78,Longer,Middle,78,L,Middle
212,Temporal,2314,4,4,59,800,5,5,1,m,m,-800,-400,-800,0,L,S,=,0.330660915197767,0.39242304245024,1.72141716186149,1.87079445314253,1.88586212174245,21022.2347532651,21022.5780481023,21022.5780481023,21023.3779651173,0.8,21025.1380203465,21025.1380203465,21026.7378630639,1.6,21028.7514985251,21029.2923381043,0.54083957916373,66,Longer,Index,66,L,Index
212,Temporal,2314,4,4,60,800,2.5,3.33333333333333,1,l,l,-1600,-1200,-1600,-800,S,=,L,0.422290917286047,0.422067009373212,1.45077973290948,1.82414006113164,1.21321732369326,21031.3348093412,21031.7679600487,21031.7679600487,21033.3679926806,1.6,21034.8481328452,21034.8481328452,21037.2479859566,2.4,21039.2181646174,21040.1483193849,0.930154767498607,77,Longer,Ring,77,L,Ring
212,Temporal,2314,4,4,61,1200,10,7.5,1,r,r,0,800,0,1200,S,=,L,0.416771307559879,0.385198140042018,1.23165839889859,1.92418529055566,1.71982785936703,21041.501496575,21041.9381144697,21041.9381144697,21042.737992347,0.8,21043.9983465632,21043.9983465632,21045.5981584837,1.6,21047.6682606939,21048.2042735898,0.536012895910972,77,Longer,Ring,77,L,Ring
212,Temporal,2314,4,4,62,1200,20,7.5,1,l,l,-1600,0,-1600,-400,=,L,S,0.20397259278695,0.412486606740702,1.49661893442221,1.32722802709829,1.99338278988363,21050.068237696,21050.2882719191,21050.2882719191,21051.0881218866,0.8,21052.6082319985,21052.6082319985,21054.2082636681,1.6,21055.6848817782,21056.6442923631,0.959410584910074,78,Longer,Middle,78,L,Middle
212,Temporal,2314,4,4,63,800,7.5,3.33333333333333,1,l,l,-1600,-400,-1600,-800,L,S,=,0.304386362710309,0.451167710394465,1.02252605365671,1.95135371837802,1.5544977472041,21058.7849224077,21059.1084135722,21059.1084135722,21060.7082014326,1.6,21061.7586266486,21061.7586266486,21064.158389294,2.4,21066.2516762008,21066.7721173415,0.520441140692128,66,Longer,Index,66,L,Index
212,Temporal,2314,4,4,64,1200,3.33333333333333,7.5,1,m,m,-800,0,-800,400,L,S,=,0.470665572482948,0.309260441876047,1.11916746771958,1.46985805597031,1.66039896996563,21068.468326943,21068.9586037434,21068.9586037434,21071.3584334362,2.4,21072.4986468334,21072.4986468334,21074.0984388642,1.6,21075.7183481159,21076.1323245408,0.413976424937573,78,Shorter,Middle,78,S,Middle
212,Temporal,2314,4,4,65,1600,3.75,5,2,l,l,-1600,-400,-1600,0,L,S,=,0.23479259964511,0.292469053541383,1.92440708272727,1.36807277780259,1.88471487836367,21077.951693383,21078.1988776822,21078.1988776822,21081.398454391,3.2,21083.3585402888,21083.3585402888,21086.5585828014,3.2,21088.0684493894,21088.5162062523,0.447756862915412,77,Equals to,Ring,77,=,Ring
212,Temporal,2314,4,4,66,1200,5,5,1,m,m,-800,800,-800,400,=,L,S,0.395229496340376,0.471148835510287,1.31659093012418,1.65555300700259,1.42250100223986,21090.551759404,21090.9587635025,21090.9587635025,21094.1587418548,3.2,21095.4989381212,21095.4989381212,21097.8987671725,2.4,21099.7017482401,21100.1881610116,0.486412771493633,77,Shorter,Ring,77,S,Ring
212,Temporal,2314,4,4,67,800,15,5,1,m,m,-800,400,-800,0,S,=,L,0.291501437510664,0.414548443629147,1.88516644281638,1.16216402346543,1.67858018843251,21101.7518109247,21102.0590338741,21102.0590338741,21102.8589601924,0.8,21104.7689933504,21104.7689933504,21106.3690943131,1.6,21107.6851579883,21108.3242123039,0.639054315550311,77,Longer,Ring,77,L,Ring
212,Temporal,2314,4,4,68,800,3.75,3.33333333333333,1,r,r,0,1200,0,800,L,S,=,0.261412053911328,0.304476947536148,1.32735525269215,1.93389596059886,1.42574813184683,21110.1685077467,21110.4491782733,21110.4491782733,21113.6491822897,3.2,21115.009291991,21115.009291991,21117.4091476688,2.4,21119.4851776856,21120.6200493906,1.13487170504959,78,Shorter,Middle,78,S,Middle
212,Temporal,2314,4,4,69,1600,10,20,2,l,l,-1600,0,-1600,0,L,S,=,0.469013739278833,0.486625159878673,1.86365661997653,1.7827564693202,1.10429041232072,21122.1852186198,21122.6694075694,21122.6694075694,21124.269204733,1.6,21126.1594980097,21126.1594980097,21126.9590717672,0.8,21128.8852881971,21129.2681993923,0.382911195134511,78,Shorter,Middle,78,S,Middle
212,Temporal,2314,4,4,70,1200,5,5,1,r,r,0,1600,0,1200,S,=,L,0.474768098519848,0.417488225255231,1.82825627269289,1.05619084124766,1.71227477360369,21130.5186222087,21131.0093160511,21131.0093160511,21134.2092231855,3.2,21136.0594906955,21136.0594906955,21138.459503566,2.4,21139.6519386679,21140.1240760916,0.472137423683307,66,Shorter,Index,78,=,Middle
212,Temporal,2314,4,4,71,800,5,5,1,m,m,-800,400,-800,0,S,=,L,0.306840508630063,0.472416856196464,1.04864094253044,1.20892552333881,1.30028780450537,21141.985304723,21142.3096052216,21142.3096052216,21144.7095237765,2.4,21145.7797863975,21145.7797863975,21147.379354188,1.6,21148.7353958917,21149.1241396103,0.38874371852944,66,Shorter,Index,66,S,Index
212,Temporal,2314,4,4,72,800,5,5,1,l,l,-1600,-1200,-1600,-800,S,=,L,0.264948356472117,0.28046228769386,1.34425151230346,1.07864831592246,1.56671340344523,21150.5853470046,21150.869894097,21150.869894097,21151.6696773378,0.8,21153.049826549,21153.049826549,21154.6496525848,1.6,21155.8853455289,21157.0999999358,1.21465440691463,77,Longer,Ring,77,L,Ring
212,Temporal,2314,4,4,73,800,5,5,1,l,l,-1600,-400,-1600,-800,S,=,L,0.336303662132034,0.368133822615916,1.3427667735227,1.63915034512437,1.79775934293425,21177.435496434,21177.7900093802,21177.7900093802,21180.189941088,2.4,21181.5599548953,21181.5599548953,21183.1598373921,1.6,21184.9354819979,21185.3640359657,0.428553967802145,66,Shorter,Index,66,S,Index
212,Temporal,2314,4,4,74,800,5,5,1,l,l,-1600,-1200,-1600,-800,=,L,S,0.267943435491731,0.232178035624673,1.00152735818864,1.93065593258974,1.88392219178011,21187.318860051,21187.5999213138,21187.5999213138,21188.3999650455,0.8,21189.4401884517,21189.4401884517,21191.0399583471,1.6,21193.1188534425,21193.5641526091,0.445299166683981,78,Longer,Middle,78,L,Middle
212,Temporal,2314,4,4,75,1600,10,20,2,r,r,0,1600,0,1600,L,S,=,0.224523511667041,0.339725014694142,1.36359388661516,1.78539766061478,1.91907040757793,21195.6022224489,21195.8402414481,21195.8402414481,21197.4400854487,1.6,21198.8303562694,21198.8303562694,21199.6301943672,0.8,21201.5689679804,21201.9720219351,0.403053954771167,78,Shorter,Middle,78,S,Middle
212,Temporal,2314,4,4,76,800,1.25,3.33333333333333,1,m,m,-800,-400,-800,0,S,=,L,0.204074535821934,0.381770789469575,1.03048858343066,1.81948895953719,1.33250070540757,21204.0356176328,21204.2503217383,21204.2503217383,21207.4502554992,3.2,21208.5104661246,21208.5104661246,21210.9102618126,2.4,21212.8689464749,21213.3481126604,0.479166185465147,66,Shorter,Index,66,S,Index
212,Temporal,2314,4,4,77,800,1.66666666666667,5,1,m,m,-800,-400,-800,0,L,S,=,0.298110900320929,0.200014403523396,1.62339643243629,1.31395647563708,1.27137143168039,21214.8356511245,21215.1506849498,21215.1506849498,21217.550216618,2.4,21219.2105818057,21219.2105818057,21220.8104691145,1.6,21222.2690675424,21222.668033602,0.398966059663508,78,Shorter,Middle,78,S,Middle
212,Temporal,2314,4,4,78,1600,5,5,2,m,m,-800,400,-800,800,=,L,S,0.434655265896797,0.432321663618407,1.34132368238241,1.68730111913841,1.44271586721227,21224.0856973199,21224.5307314788,21224.5307314788,21226.9303452723,2.4,21228.3105326589,21228.3105326589,21231.5104824599,3.2,21233.3356998863,21234.4280288157,1.0923289293678,78,Longer,Middle,78,L,Middle
212,Temporal,2314,4,4,79,1200,2.5,5,1,l,l,-1600,-800,-1600,-400,L,S,=,0.241173875694684,0.343979911418129,1.2116803976856,1.03502329694324,1.61257610966309,21236.0357372918,21236.2909640856,21236.2909640856,21239.4905295663,3.2,21240.7308773152,21240.7308773152,21243.1307609028,2.4,21244.3191673432,21245.2040589736,0.884891630357743,78,Shorter,Middle,78,S,Middle
212,Temporal,2314,4,4,80,400,3.33333333333333,1.25,2,r,r,0,800,0,400,=,L,S,0.397216113404431,0.45109116822186,1.38618104385297,1.11066670053,1.48886997532948,21246.9691299092,21247.3806800864,21247.3806800864,21249.7807080347,2.4,21251.2011451075,21251.2011451075,21254.4010163121,3.2,21255.6691381217,21256.2039816604,0.534843538673158,78,Longer,Middle,78,L,Middle
212,Temporal,2314,4,4,81,1200,10,7.5,1,r,r,0,800,0,1200,S,=,L,0.247746794740442,0.464183701942043,1.09472853500896,1.06310781024234,1.72531051959255,21257.8358644575,21258.1012234473,21258.1012234473,21258.9010240113,0.8,21260.0312447613,21260.0312447613,21261.631104802,1.6,21262.8525777163,21263.7560240114,0.903446295058529,77,Longer,Ring,77,L,Ring
212,Temporal,2314,4,4,82,1200,20,7.5,1,m,m,-800,800,-800,400,=,L,S,0.316293261752926,0.424764708672822,1.59051746512741,1.46936298269619,1.35969466946416,21265.6359653175,21265.9711554245,21265.9711554245,21266.7709428357,0.8,21268.3912729533,21268.3912729533,21269.9911301068,1.6,21271.6025471001,21272.0599298984,0.457382798362232,78,Longer,Middle,78,L,Middle
212,Temporal,2314,4,4,83,800,5,5,1,r,r,0,1200,0,800,S,=,L,0.334461807098146,0.243083450598954,1.75772213931362,1.28928428517999,1.9409334358346,21273.5692620435,21273.9212069452,21273.9212069452,21276.3211174801,2.4,21278.1113049565,21278.1113049565,21279.7112772778,1.6,21281.1359226509,21282.0839370818,0.948014430938201,66,Shorter,Index,66,S,Index
212,Temporal,2314,4,4,84,400,5,5,2,m,m,-800,0,-800,-400,=,L,S,0.311985639921335,0.312468417013948,1.50403187451311,1.12372783576263,1.3993526047141,21284.1693026929,21284.5012931254,21284.5012931254,21286.1013206245,1.6,21287.6414551686,21287.6414551686,21288.4413375371,0.8,21289.7026567501,21290.5637804794,0.861123729304381,77,Shorter,Ring,77,S,Ring
212,Temporal,2314,4,4,85,1600,5,5,2,r,r,0,1600,0,1600,L,S,=,0.2868725836416,0.395486690169115,1.68825986770876,1.7659727380437,1.46087123148738,21292.1193513265,21292.4215194059,21292.4215194059,21295.6213447359,3.2,21297.3415355615,21297.3415355615,21300.541419919,3.2,21302.4527668461,21302.91594358,0.463176733886939,77,Equals to,Ring,66,L,Index
212,Temporal,2314,4,4,86,1200,6.66666666666667,7.5,1,m,m,-800,800,-800,400,=,L,S,0.258826125588875,0.406831781455959,1.04163781801594,1.79850388079768,1.93627248224799,21304.552759984,21304.8317719666,21304.8317719666,21307.2316818598,2.4,21308.3117340607,21308.3117340607,21309.911568758,1.6,21311.8527344482,21312.4200533685,0.567318920358957,77,Shorter,Ring,77,S,Ring
212,Temporal,2314,4,4,87,400,2.5,1.25,2,r,r,0,800,0,400,L,S,=,0.248221715404849,0.290710940762202,1.97979195830163,1.39402286811928,1.16166380601783,21314.5027977102,21314.7618587241,21314.7618587241,21317.9617745201,3.2,21319.9617055735,21319.9617055735,21323.1616980411,3.2,21324.702875277,21325.483849888,0.780974610952399,77,Equals to,Ring,77,=,Ring
212,Temporal,2314,4,4,88,1600,15,20,2,m,m,-800,400,-800,800,S,=,L,0.248241452614854,0.490742082285799,1.36648655734768,1.92066352106005,1.5765120680566,21326.7861767899,21327.0521080896,21327.0521080896,21327.851964794,0.8,21329.2521913697,21329.2521913697,21330.0517275933,0.8,21332.1194915167,21332.6438705091,0.524378992373386,78,Equals to,Middle,78,=,Middle
212,Temporal,2314,4,4,89,1200,10,5,1,r,r,0,1600,0,1200,S,=,L,0.214241929376073,0.223478037802111,1.77876291373754,1.29777531004243,1.76527938757772,21334.3695511858,21334.6022237065,21334.6022237065,21336.2020510254,1.6,21338.0118243984,21338.0118243984,21340.4118828227,2.4,21341.8529494463,21342.2677669518,0.414817505450628,77,Longer,Ring,77,L,Ring
212,Temporal,2314,4,4,90,800,15,5,1,l,l,-1600,-400,-1600,-800,L,S,=,0.437250304184683,0.284009348547372,1.71483746672665,1.0644800158319,1.5009771961266,21344.186252884,21344.6421975034,21344.6421975034,21345.4419679121,0.8,21347.1822017765,21347.1822017765,21348.7820124137,1.6,21350.0029087076,21350.6678831461,0.664974438532226,66,Longer,Index,66,L,Index
212,Temporal,2314,4,4,91,1200,2.5,5,1,m,m,-800,0,-800,400,L,S,=,0.453168283875647,0.287683637855727,1.49430041549725,1.81180804759863,1.02821914712579,21352.3196354283,21352.7922735975,21352.7922735975,21355.9921678998,3.2,21357.5123540417,21357.5123540417,21359.9121991331,2.4,21361.8696294614,21362.2598239056,0.390194444229564,78,Shorter,Middle,78,S,Middle
212,Temporal,2314,4,4,92,800,7.5,3.33333333333333,1,l,l,-1600,-400,-1600,-800,S,=,L,0.464777090663242,0.405578920589331,1.3226702505552,1.52933297327632,1.54557501130094,21363.4529977621,21363.9324917811,21363.9324917811,21365.532317496,1.6,21366.8926953874,21366.8926953874,21369.2921959379,2.4,21370.9697038232,21371.355775326,0.386071502813138,77,Longer,Ring,77,L,Ring
212,Temporal,2314,4,4,93,1200,6.66666666666667,7.5,1,r,r,0,1600,0,1200,=,L,S,0.499703209564468,0.236103445635405,1.75622653025225,1.18199552784759,1.37170220044483,21373.0530442142,21373.5725495638,21373.5725495638,21375.9723863143,2.4,21377.762406974,21377.762406974,21379.3624116962,1.6,21380.6864559641,21381.1718014161,0.485345452005276,77,Shorter,Ring,77,S,Ring
212,Temporal,2314,4,4,94,1200,6.66666666666667,7.5,1,r,r,0,1600,0,1200,S,=,L,0.397806542689511,0.452737975025474,1.67407662659613,1.42246676555319,1.76873534322663,21382.686464613,21383.1027591242,21383.1027591242,21385.502639183,2.4,21387.2128463438,21387.2128463438,21388.8126560186,1.6,21390.3864574271,21391.2277071801,0.841249752982549,66,Shorter,Index,66,S,Index
212,Temporal,2314,4,4,95,800,1.25,3.33333333333333,1,m,m,-800,-400,-800,0,L,S,=,0.335103976837084,0.243125520314162,1.79622672153803,1.52498619450168,1.87271653800379,21393.1531792074,21393.5028294439,21393.5028294439,21396.7026534907,3.2,21398.5330313051,21398.5330313051,21400.9328975693,2.4,21402.6032307893,21402.9557957931,0.352565003842756,78,Shorter,Middle,77,=,Ring
212,Temporal,2314,4,4,96,1600,20,20,2,m,m,-800,800,-800,800,L,S,=,0.480635774427843,0.203830713222569,1.56341371239183,1.54025189045052,1.33348947639755,21404.9698719232,21405.4628967096,21405.4628967096,21406.2628012134,0.8,21407.8530568281,21407.8530568281,21408.6528529009,0.8,21410.3361031338,21410.7477181386,0.411615004784835,77,Equals to,Ring,77,=,Ring
