Subject,Task,SequenceOrder,ListNo,RunNo,TrialNo,Aud_Probe_Dist,Aud_Standard_Vel,Aud_Probe_Vel,Main_Control,Aud_Std_StartCode,Aud_Probe_StartCode,Aud_Std_StartPt,Aud_Std_EndPt,Aud_Probe_StartPt,Aud_Probe_EndPt,RespIndex,RespMiddle,RespRing,ISI_Cross_Std,ISI_Cross_Probe,ISI_Std_Probe,ISI_Probe_Response,ITI,TrialOnset,StdOnset,StdOnsetByStop,StdOffset,StdDur,ProbeOnset,ProbeOnsetByStop,ProbeOffset,ProbeDur,RespWinStart,RespTime,RT,CorrectKC,CorrectResponse,CorrectFinger,SubjRespKC,SubjResponse,SubjRespFinger
210,Temporal,4132,4,0,1,800,5,5,1,m,m,-800,-400,-800,0,=,L,S,0.275262220030686,0.28127960641806,1.27457040144551,1.42155084690024,1.96235875544141,1055.61909468522,1055.96987670955,1055.96987670955,1056.76836423294,0.8,1058.88841012039,1058.88841012039,1060.48843024106,1.6,1063.70236065023,1066.22510034672,2.52273969649605,78,Longer,Middle,78,L,Middle
210,Temporal,4132,4,0,2,400,1.66666666666667,1.25,2,r,r,0,400,0,400,S,=,L,0.49623107243795,0.490032147758749,1.75501018964147,1.23896106127357,1.06777479769851,1068.48568936402,1068.998639455,1068.998639455,1071.39865585437,2.4,1075.58878148026,1075.58878148026,1078.78880249917,3.2,1083.41878010722,1084.4409539098,1.02217380257616,77,Longer,Ring,77,L,Ring
210,Temporal,4132,4,0,3,1200,20,7.5,1,l,l,-1600,0,-1600,-400,S,=,L,0.319033942960442,0.288837148338104,1.79933296139521,1.64235041373055,1.40903749474521,1085.75230592148,1086.08897556519,1086.08897556519,1086.88901897605,0.8,1089.52904117552,1089.52904117552,1091.12910267959,1.6,1094.53585951716,1095.46508171457,0.929222197413537,77,Longer,Ring,77,L,Ring
210,Temporal,4132,4,0,4,800,1.25,3.33333333333333,1,m,m,-800,-400,-800,0,S,=,L,0.445056887857753,0.375289660597572,1.08593353698875,1.90252109649535,1.94534452998275,1097.15235089786,1097.60917387187,1097.60917387187,1100.8090941591,3.2,1105.13906519714,1105.13906519714,1107.53910405262,2.4,1112.01896707036,1113.04906499183,1.03009792146281,66,Shorter,Index,78,=,Middle
210,Temporal,4132,4,0,5,400,10,5,2,l,l,-1600,-800,-1600,-1200,=,L,S,0.291998360701736,0.239065380854276,1.48683729954128,1.85237945756681,1.7084815435753,1115.48566626631,1115.78924651417,1115.78924651417,1116.58927484736,0.8,1118.91933153941,1118.91933153941,1119.7193393413,0.8,1122.55246741298,1123.43303941496,0.880572001981136,66,Equals to,Index,66,=,Index
210,Temporal,4132,4,0,6,1200,2.5,5,1,l,l,-1600,-800,-1600,-400,S,=,L,0.250906068722054,0.208518857877428,1.43813003546285,1.20962931098272,1.0806306160071,1125.61898978311,1125.8894941088,1125.8894941088,1129.08953790463,3.2,1133.76953037221,1133.76953037221,1136.16972032522,2.4,1139.95235198858,1140.80110946005,0.848757471467934,66,Shorter,Index,78,=,Middle
210,Temporal,4132,4,0,7,1600,5,5,2,r,r,0,1600,0,1600,L,S,=,0.398471661440719,0.388568191126665,1.40158514449061,1.4868228665062,1.49021101640979,1142.95250661493,1143.36994317963,1143.36994317963,1146.56981727144,3.2,1151.21969641908,1151.21969641908,1154.4197373277,3.2,1159.28594100075,1160.38495062223,1.09900962147981,77,Equals to,Ring,66,L,Index
210,Temporal,4132,4,0,8,1600,6.66666666666667,5,2,m,m,-800,800,-800,800,L,S,=,0.362352265043547,0.438719596082153,1.67922421126022,1.64927503600674,1.96078577213446,1162.36907832434,1162.75001826002,1162.75001826002,1165.14996857428,2.4,1169.26000545363,1169.26000545363,1172.46023659755,3.2,1177.46915942297,1178.08111884029,0.611959417321714,66,Longer,Index,66,L,Index
210,Temporal,4132,4,0,9,1200,3.33333333333333,7.5,1,m,m,-800,0,-800,400,=,L,S,0.319121359617381,0.494427621085091,1.35730729943923,1.86944526067282,1.47822623770849,1180.23576122356,1180.57020642938,1180.57020642938,1182.97004799191,2.4,1186.7701745417,1186.7701745417,1188.37009938432,1.6,1192.01926220778,1192.72880271732,0.7095405095356,77,Shorter,Ring,77,S,Ring
210,Temporal,4132,4,0,10,1200,10,7.5,1,r,r,0,800,0,1200,=,L,S,0.303063077829952,0.464819682286399,1.00762180797948,1.46817965920041,1.35510745887672,1194.40228930396,1194.7202404985,1194.7202404985,1195.52024028035,0.8,1197.37027905885,1197.37027905885,1198.97029789631,1.6,1202.21911290674,1202.86490758349,0.645794676747528,78,Longer,Middle,78,L,Middle
210,Temporal,4132,4,0,11,400,2.5,1.25,2,r,r,0,800,0,400,=,L,S,0.457271586199945,0.469963519166548,1.5252973977716,1.45682800422846,1.74575152088252,1204.53593971754,1205.01051649048,1205.01051649048,1208.21073544395,3.2,1212.98053373677,1212.98053373677,1216.18063238966,3.2,1221.00257411157,1221.6810299141,0.678455802530152,66,Equals to,Index,66,=,Index
210,Temporal,4132,4,0,12,1200,5,5,1,l,l,-1600,-800,-1600,-400,S,=,L,0.445146645144312,0.298538106340191,1.10270699100095,1.32167490041241,1.96682680298122,1223.61913638942,1224.08068573254,1224.08068573254,1225.680578495,1.6,1228.42073183814,1228.42073183814,1230.82103150528,2.4,1234.71911675636,1235.30488272779,0.585765971425417,77,Longer,Ring,77,L,Ring
210,Temporal,4132,4,0,13,800,5,5,1,l,l,-1600,-400,-1600,-800,S,=,L,0.268400192538334,0.493611139342054,1.11484929130798,1.35256613071815,1.40511020826155,1237.4357732857,1237.72100240216,1237.72100240216,1240.12107237539,2.4,1243.68123520142,1243.68123520142,1245.28114785358,1.6,1248.40276441105,1248.95309079454,0.550326383488709,66,Shorter,Index,66,S,Index
210,Temporal,4132,4,0,14,800,5,5,1,l,l,-1600,-400,-1600,-800,S,=,L,0.429586987610108,0.251857489546022,1.88258535998443,1.15986451335686,1.68116762696266,1250.53579888566,1250.98120774081,1250.98120774081,1253.38125846595,2.4,1257.70123493195,1257.70123493195,1259.30124125816,1.6,1262.21911322755,1262.7768806028,0.557767375252979,66,Shorter,Index,66,S,Index
210,Temporal,4132,4,0,15,800,2.5,3.33333333333333,1,m,m,-800,-400,-800,0,L,S,=,0.323295764373473,0.318448766483719,1.27182038695027,1.84532752771436,1.90770442714267,1265.31911123858,1265.66137213235,1265.66137213235,1267.26141118032,1.6,1270.1714302231,1270.1714302231,1272.5714941011,2.4,1276.98611955889,1277.60086064638,0.614741087491439,66,Longer,Index,66,L,Index
210,Temporal,4132,4,0,16,1200,6.66666666666667,7.5,1,r,r,0,1600,0,1200,S,=,L,0.458154291537357,0.206376531815779,1.47985886821607,1.80123185563212,1.78621601215726,1279.71899453098,1280.19154095096,1280.19154095096,1282.59126285452,2.4,1286.51158572202,1286.51158572202,1288.11163150682,1.6,1291.68582012273,1292.23290448583,0.547084363106251,66,Shorter,Index,78,=,Middle
210,Temporal,4132,4,0,17,800,7.5,3.33333333333333,1,l,l,-1600,-400,-1600,-800,S,=,L,0.256263360905859,0.25857784859058,1.94533804076753,1.16587443807505,1.35745288460829,1294.25226197167,1294.52173877002,1294.52173877002,1296.12166329183,1.6,1299.71174374886,1299.71174374886,1302.11191445378,2.4,1305.83560942027,1306.38469141458,0.549081994307699,77,Longer,Ring,77,L,Ring
210,Temporal,4132,4,0,18,800,5,5,1,l,l,-1600,-1200,-1600,-800,L,S,=,0.345529346584317,0.224751092838409,1.28992845090209,1.86825329344911,1.31022005104676,1307.93583263399,1308.29191686621,1308.29191686621,1309.09177100416,0.8,1311.22187434075,1311.22187434075,1312.82196439616,1.6,1316.46891304738,1317.28081555451,0.811902507128252,66,Longer,Index,66,L,Index
210,Temporal,4132,4,0,19,1200,10,5,1,r,r,0,1600,0,1200,L,S,=,0.27704398335115,0.205176173569022,1.57591719463957,1.60081832804436,1.20544683746038,1318.81918791014,1319.11199885025,1319.11199885025,1320.71201287569,1.6,1323.92189891415,1323.92189891415,1326.32198171944,2.4,1330.50260939974,1330.99279287256,0.490183472817762,66,Longer,Index,66,L,Index
210,Temporal,4132,4,0,20,800,15,5,1,r,r,0,1200,0,800,L,S,=,0.483729495664661,0.208497632151077,1.14496162904389,1.4899039447441,1.60573653086038,1332.3690921188,1332.87213072535,1332.87213072535,1333.67212377037,0.8,1335.66234544423,1335.66234544423,1337.26230589582,1.6,1340.51911592228,1341.04860688722,0.529490964945353,66,Longer,Index,66,L,Index
