Subject,Task,SequenceOrder,ListNo,RunNo,TrialNo,Aud_Probe_Dist,Aud_Standard_Vel,Aud_Probe_Vel,Main_Control,Aud_Std_StartCode,Aud_Probe_StartCode,Aud_Std_StartPt,Aud_Std_EndPt,Aud_Probe_StartPt,Aud_Probe_EndPt,RespIndex,RespMiddle,RespRing,ISI_Cross_Std,ISI_Cross_Probe,ISI_Std_Probe,ISI_Probe_Response,ITI,TrialOnset,StdOnset,StdOnsetByStop,StdOffset,StdDur,ProbeOnset,ProbeOnsetByStop,ProbeOffset,ProbeDur,RespWinStart,RespTime,RT,CorrectKC,CorrectResponse,CorrectFinger,SubjRespKC,SubjResponse,SubjRespFinger
221,Spatial,2314,1,3,1,800,5,5,1,m,m,-800,400,-800,0,S,=,L,0.316730710263825,0.470635438513486,1.49740593717201,1.74041854337614,1.23530317820679,273008.886047544,273009.213889341,273009.213889341,273011.613102882,2.4,273013.153494164,273013.153494164,273014.753373626,1.6,273016.636106065,273016.970390281,0.334284216747619,66,Shorter,Index,66,S,Index
221,Spatial,2314,1,3,2,1200,3.33333333333333,7.5,1,l,l,-1600,-800,-1600,-400,=,L,S,0.335411174815776,0.43756346555348,1.51041161045331,1.18081512782172,1.9459968229356,273018.352833613,273018.703474178,273018.703474178,273021.103404712,2.4,273022.643527804,273022.643527804,273024.243346955,1.6,273025.569467462,273026.09852508,0.529057617997751,78,Longer,Middle,77,S,Ring
221,Spatial,2314,1,3,3,400,3.33333333333333,1.25,2,r,r,0,800,0,400,=,L,S,0.436676330749252,0.425839697944639,1.72938593401293,1.96304506323947,1.48952135517891,273028.202851546,273028.653697232,273028.653697232,273031.053549169,2.4,273032.81382563,273032.81382563,273036.013446653,3.2,273038.136271507,273038.53854855,0.40227704285644,77,Shorter,Ring,78,L,Middle
221,Spatial,2314,1,3,4,1200,5,5,1,l,l,-1600,0,-1600,-400,L,S,=,0.366830279372593,0.379148329503604,1.24679881621057,1.82318600505021,1.77708191662507,273040.169629547,273040.553967861,273040.553967861,273043.753835581,3.2,273045.033752513,273045.033752513,273047.433642946,2.4,273049.402938099,273049.914473503,0.511535404075403,78,Shorter,Middle,78,S,Middle
221,Spatial,2314,1,3,5,400,10,5,2,r,r,0,800,0,400,S,=,L,0.325386284647946,0.355427858811649,1.25574799464033,1.58606232840848,1.86684821306285,273051.836373255,273052.17393247,273052.17393247,273052.973745141,0.8,273054.253900107,273054.253900107,273055.053771806,0.8,273056.786316248,273057.194579021,0.408262772893067,66,Shorter,Index,78,=,Middle
221,Spatial,2314,1,3,6,800,15,5,1,r,r,0,1200,0,800,L,S,=,0.305525423606798,0.289032069707186,1.33534900591303,1.67473193330834,1.99631338195977,273059.219699755,273059.543888899,273059.543888899,273060.343892126,0.8,273061.704017617,273061.704017617,273063.303893229,1.6,273065.119726574,273065.586642889,0.466916314850096,78,Shorter,Middle,66,L,Index
221,Spatial,2314,1,3,7,800,5,5,1,m,m,-800,400,-800,0,L,S,=,0.247893952742021,0.495946205571822,1.93205064778865,1.17320456699602,1.68729894960041,273067.736426059,273068.004220749,273068.004220749,273070.404097388,2.4,273072.364307699,273072.364307699,273073.964048895,1.6,273075.286426604,273075.890720028,0.604293423646595,78,Shorter,Middle,78,S,Middle
221,Spatial,2314,1,3,8,1200,5,5,1,r,r,0,1600,0,1200,L,S,=,0.293420908717763,0.212881730103104,1.58547606774526,1.73366565987717,1.576179678065,273077.719849569,273078.024518223,273078.024518223,273081.224153682,3.2,273082.834391615,273082.834391615,273085.234393687,2.4,273087.119828589,273087.698579424,0.578750834916718,78,Shorter,Middle,77,=,Ring
221,Spatial,2314,1,3,9,1600,6.66666666666667,5,2,r,r,0,1600,0,1600,=,L,S,0.409993315129308,0.36264469271836,1.68931573109968,1.14853028908924,1.62843316180191,273089.436545654,273089.864352932,273089.864352932,273092.26435308,2.4,273093.994641917,273093.994641917,273097.194500655,3.2,273098.486564806,273098.80260177,0.316036964126397,66,Equals to,Index,78,L,Middle
221,Spatial,2314,1,3,10,800,3.75,3.33333333333333,1,r,r,0,1200,0,800,S,=,L,0.261494672910037,0.417352265092986,1.72906717412705,1.88247338094634,1.54310050478056,273100.586641926,273100.864605404,273100.864605404,273104.064546267,3.2,273105.834777219,273105.834777219,273108.234688825,2.4,273110.269971699,273110.466698811,0.196727112226654,66,Shorter,Index,78,=,Middle
221,Spatial,2314,1,3,11,1200,10,7.5,1,m,m,-800,0,-800,400,L,S,=,0.266733874706411,0.222755253500105,1.14423337151998,1.66416758103626,1.98231748832749,273112.153396044,273112.434736605,273112.434736605,273113.234734379,0.8,273114.414795864,273114.414795864,273116.014794343,1.6,273117.836684753,273118.194590891,0.357906137127429,66,Longer,Index,66,L,Index
221,Spatial,2314,1,3,12,800,2.5,3.33333333333333,1,m,m,-800,-400,-800,0,=,L,S,0.390221622331656,0.218721450005168,1.29767942509064,1.01349991016672,1.36500345454479,273120.33673127,273120.744781948,273120.744781948,273122.344726211,1.6,273123.665101428,273123.665101428,273126.06491551,2.4,273127.236756485,273127.610403742,0.373647257511038,78,Longer,Middle,78,L,Middle
221,Spatial,2314,1,3,13,1200,6.66666666666667,7.5,1,l,l,-1600,0,-1600,-400,=,L,S,0.44887131787868,0.404269366165088,1.45028330484188,1.59220416273564,1.49476116507495,273129.136792928,273129.605150241,273129.605150241,273132.004985176,2.4,273133.485150986,273133.485150986,273135.085180904,1.6,273136.82015863,273137.170590719,0.350432088423986,77,Shorter,Ring,77,S,Ring
221,Spatial,2314,1,3,14,400,1.66666666666667,1.25,2,m,m,-800,-400,-800,-400,=,L,S,0.441086921296674,0.418979559647932,1.61461164892828,1.06954868742416,1.23988082267035,273138.820188144,273139.275323596,273139.275323596,273141.675204406,2.4,273143.315233631,273143.315233631,273146.515138885,3.2,273147.736856254,273148.098653401,0.361797146499157,66,Equals to,Index,78,L,Middle
221,Spatial,2314,1,3,15,1200,3.33333333333333,7.5,1,l,l,-1600,-800,-1600,-400,S,=,L,0.48448155152134,0.31249550812937,1.78885389750917,1.20298298812261,1.63643649749373,273149.486952335,273149.985381642,273149.985381642,273152.385119053,2.4,273154.205375252,273154.205375252,273155.805392979,1.6,273157.153631833,273157.514627616,0.360995782713871,77,Longer,Ring,66,S,Index
221,Spatial,2314,1,3,16,1200,5,5,1,m,m,-800,0,-800,400,S,=,L,0.309780184263378,0.421431030902576,1.73915251203912,1.99546079274003,1.60634775186423,273159.303630582,273159.625368156,273159.625368156,273161.225288359,1.6,273162.995571602,273162.995571602,273165.395612171,2.4,273167.537008058,273167.938643379,0.401635321089998,77,Longer,Ring,77,L,Ring
221,Spatial,2314,1,3,17,800,3.75,3.33333333333333,1,m,m,-800,400,-800,0,=,L,S,0.401096140967422,0.439962850172068,1.48617014529212,1.60052497176172,1.95342634467915,273169.687057173,273170.105674432,273170.105674432,273173.305597651,3.2,273174.82563949,273174.82563949,273177.225669472,2.4,273178.970434463,273179.402669266,0.432234803098254,77,Shorter,Ring,77,S,Ring
221,Spatial,2314,1,3,18,400,5,5,2,r,r,0,400,0,400,L,S,=,0.320498225794887,0.364945037025389,1.75797072531866,1.52488882593288,1.96387003605089,273181.503780012,273181.836037651,273181.836037651,273182.635567695,0.8,273184.425744521,273184.425744521,273185.225710535,0.8,273186.887094322,273187.538683608,0.651589285989758,77,Equals to,Ring,77,=,Ring
221,Spatial,2314,1,3,19,1200,10,7.5,1,m,m,-800,0,-800,400,L,S,=,0.219008180762113,0.225702761954996,1.65988688040851,1.75735358260218,1.57890082222602,273189.637193641,273189.875931324,273189.875931324,273190.675817779,0.8,273192.36589182,273192.36589182,273193.965791172,1.6,273195.870538965,273196.226462585,0.35592361993622,66,Longer,Index,66,L,Index
221,Spatial,2314,1,3,20,800,1.25,3.33333333333333,1,r,r,0,400,0,800,L,S,=,0.474831856383198,0.211753780122258,1.2242405925074,1.84854510760233,1.1292743172842,273197.970520206,273198.455974992,273198.455974992,273201.655872226,3.2,273202.906113674,273202.906113674,273205.305958233,2.4,273207.303876637,273207.738549769,0.43467313144356,66,Longer,Index,78,S,Middle
221,Spatial,2314,1,3,21,1600,20,20,2,r,r,0,1600,0,1600,L,S,=,0.247114195507635,0.398091545646866,1.49145088935571,1.22238755636668,1.4597187025754,273209.003972814,273209.266324133,273209.266324133,273210.066194228,0.8,273211.596299631,273211.596299631,273212.396172612,0.8,273213.753987196,273214.130624223,0.376637027657125,77,Equals to,Ring,77,=,Ring
221,Spatial,2314,1,3,22,800,1.66666666666667,5,1,r,r,0,400,0,800,=,L,S,0.354362397243177,0.460466290664391,1.71078708824797,1.83880721667002,1.36322445593177,273215.737339703,273216.106254763,273216.106254763,273218.506136535,2.4,273220.246339442,273220.246339442,273221.846207034,1.6,273223.820640154,273224.314617415,0.493977260251995,78,Longer,Middle,77,S,Ring
221,Spatial,2314,1,3,23,1600,10,20,2,r,r,0,1600,0,1600,=,L,S,0.374971010288823,0.350592968399765,1.85814035951339,1.50341204847639,1.37640041081878,273225.820685195,273226.216361763,273226.216361763,273227.81639521,1.6,273229.706443844,273229.706443844,273230.506312976,0.8,273232.15408568,273232.682508198,0.528422518516891,66,Equals to,Index,77,S,Ring
221,Spatial,2314,1,3,24,800,5,5,1,m,m,-800,-400,-800,0,L,S,=,0.31854173626421,0.458132435356886,1.32356705442155,1.88610586503411,1.50234766049479,273234.204109412,273234.536792755,273234.536792755,273235.336324403,0.8,273236.696861163,273236.696861163,273238.296333526,1.6,273240.32074249,273241.018668119,0.697925629094243,66,Longer,Index,66,L,Index
221,Spatial,2314,1,3,25,1200,5,5,1,m,m,-800,0,-800,400,=,L,S,0.253519482833937,0.468998245409763,1.19009087887581,1.33440955684577,1.72586953457032,273261.904275523,273262.177058687,273262.177058687,273263.776873988,1.6,273264.997202239,273264.997202239,273267.396775079,2.4,273268.870913061,273269.402653226,0.531740165664814,78,Longer,Middle,78,L,Middle
221,Spatial,2314,1,3,26,1600,10,20,2,m,m,-800,800,-800,800,=,L,S,0.231778162874015,0.464017422991666,1.87711746375992,1.50423505179074,1.38353459185192,273271.271015589,273271.517106409,273271.517106409,273273.116981701,1.6,273275.027196279,273275.027196279,273275.827116098,0.8,273277.470962593,273277.802604657,0.331642064382322,66,Equals to,Index,77,S,Ring
221,Spatial,2314,1,3,27,800,3.75,3.33333333333333,1,m,m,-800,400,-800,0,=,L,S,0.439913377009994,0.497775547804478,1.2784399249352,1.41882965932252,1.12098259953257,273279.337713245,273279.796950474,273279.796950474,273282.997031207,3.2,273284.297198133,273284.297198133,273286.697144386,2.4,273288.254419219,273288.890758845,0.636339625925757,77,Shorter,Ring,66,=,Index
221,Spatial,2314,1,3,28,800,7.5,3.33333333333333,1,l,l,-1600,-400,-1600,-800,=,L,S,0.464094833559325,0.420699645671476,1.02669252018678,1.41471325973937,1.5867853764739,273290.154458861,273290.63757532,273290.63757532,273292.237401849,1.6,273293.297294374,273293.297294374,273295.697324998,2.4,273297.254423701,273297.618729842,0.364306140225381,77,Shorter,Ring,78,L,Middle
221,Spatial,2314,1,3,29,400,2.5,5,2,l,l,-1600,-1200,-1600,-1200,L,S,=,0.351184839203421,0.420490743806599,1.20005356304311,1.75913155997207,1.73904860560857,273299.37116874,273299.737466696,273299.737466696,273301.337273015,1.6,273302.567441231,273302.567441231,273303.367437721,0.8,273305.2711892,273305.658656237,0.387467036489397,77,Equals to,Ring,78,S,Middle
221,Spatial,2314,1,3,30,1200,5,5,1,r,r,0,1600,0,1200,S,=,L,0.346040399152135,0.366907143169138,1.99794030135729,1.08204331848332,1.91619336071805,273307.554550482,273307.917543855,273307.917543855,273311.117594433,3.2,273313.147495806,273313.147495806,273315.547521617,2.4,273316.771197484,273317.346682874,0.575485389737878,66,Shorter,Index,78,=,Middle
221,Spatial,2314,1,3,31,1200,2.5,5,1,r,r,0,800,0,1200,=,L,S,0.212764124087401,0.311119529282263,1.26347158305493,1.90377096831299,1.36146437941952,273319.421291832,273319.647620277,273319.647620277,273322.847626263,3.2,273324.137953545,273324.137953545,273326.53785649,2.4,273328.587992687,273328.946640656,0.358647969202138,78,Longer,Middle,66,=,Index
221,Spatial,2314,1,3,32,1200,10,5,1,l,l,-1600,0,-1600,-400,L,S,=,0.269279204782468,0.314184940233553,1.07235151679287,1.59510431327785,1.79171669933537,273330.471322212,273330.757884149,273330.757884149,273332.357879421,1.6,273333.458209699,273333.458209699,273335.857792804,2.4,273337.604675499,273337.930747155,0.326071655668784,78,Shorter,Middle,66,L,Index
221,Spatial,2314,1,3,33,400,5,5,2,m,m,-800,0,-800,-400,L,S,=,0.498912574656502,0.472990796482657,1.25849863237219,1.62724657205186,1.14397153128419,273339.888082071,273340.398178633,273340.398178633,273341.998142145,1.6,273343.298069432,273343.298069432,273344.098070093,0.8,273345.888058011,273346.194732364,0.30667435307987,78,Shorter,Middle,78,S,Middle
221,Spatial,2314,1,3,34,1600,6.66666666666667,5,2,m,m,-800,800,-800,800,S,=,L,0.372911742499112,0.346318315300761,1.04040201505729,1.87604201701306,1.6539423762883,273347.504753326,273347.88811122,273347.88811122,273350.288165903,2.4,273351.358210534,273351.358210534,273354.558074404,3.2,273356.571432696,273356.962750378,0.391317682049703,78,Equals to,Middle,77,L,Ring
221,Spatial,2314,1,3,35,1600,7.5,20,2,m,m,-800,400,-800,800,S,=,L,0.364675119691074,0.296828760525298,1.45698834516103,1.09283403385678,1.28065452590576,273358.788202419,273359.168528237,273359.168528237,273360.768421172,1.6,273362.25846448,273362.25846448,273363.058323988,0.8,273364.288210447,273364.562834877,0.274624430050608,77,Longer,Ring,66,S,Index
221,Spatial,2314,1,3,36,1200,6.66666666666667,7.5,1,l,l,-1600,0,-1600,-400,L,S,=,0.290877672825912,0.342812606631617,1.20757368966227,1.2518442332674,1.57906765086467,273366.021524542,273366.328673958,273366.328673958,273368.728559258,2.4,273369.958504517,273369.958504517,273371.55839649,1.6,273372.954864099,273373.394752511,0.439888412191067,78,Shorter,Middle,78,S,Middle
221,Spatial,2314,1,3,37,1200,10,5,1,l,l,-1600,0,-1600,-400,L,S,=,0.362076148933808,0.452047009920268,1.88031502685465,1.02997445725553,1.72073940596262,273375.138244558,273375.518831683,273375.518831683,273377.11834126,1.6,273379.038647954,273379.038647954,273381.438513364,2.4,273382.621654827,273382.946869067,0.325214240292553,78,Shorter,Middle,66,L,Index
221,Spatial,2314,1,3,38,800,15,5,1,m,m,-800,400,-800,0,S,=,L,0.368333311762847,0.418080111774412,1.10813449221384,1.42501488722186,1.41765680832858,273384.821681478,273385.208812005,273385.208812005,273386.00849828,0.8,273387.148873972,273387.148873972,273388.748735789,1.6,273390.321636566,273390.730727008,0.40909044246655,66,Shorter,Index,77,L,Ring
221,Spatial,2314,1,3,39,1200,5,5,1,m,m,-800,0,-800,400,L,S,=,0.423382923708006,0.244523373392915,1.79485157146714,1.24664562562777,1.02760396134265,273392.305066172,273392.738648531,273392.738648531,273394.338660163,1.6,273396.169057239,273396.169057239,273398.568899552,2.4,273399.97175402,273400.258587393,0.286833372607362,66,Longer,Index,66,L,Index
221,Spatial,2314,1,3,40,400,2.5,1.25,2,m,m,-800,0,-800,-400,=,L,S,0.397901808409215,0.411386142887261,1.4901425425073,1.14463212943675,1.53715214668351,273401.438398607,273401.848982018,273401.848982018,273405.048877969,3.2,273406.57908667,273406.57908667,273409.778969468,3.2,273411.071791674,273411.562883639,0.491091965639498,77,Shorter,Ring,66,=,Index
221,Spatial,2314,1,3,41,1200,20,7.5,1,r,r,0,1600,0,1200,=,L,S,0.327939666636111,0.427118678476484,1.24887629469505,1.2440771137195,1.55415581414973,273413.255176303,273413.599275391,273413.599275391,273414.399127842,0.8,273415.689235375,273415.689235375,273417.28894417,1.6,273418.688542398,273419.042757795,0.354215397150256,77,Shorter,Ring,78,L,Middle
221,Spatial,2314,1,3,42,1200,10,7.5,1,r,r,0,800,0,1200,L,S,=,0.225318116163889,0.229668640662842,1.04168330431372,1.97907962871376,1.35134271254945,273420.73856613,273420.979484336,273420.979484336,273421.778988395,0.8,273422.849378529,273422.849378529,273424.449190623,1.6,273426.588519902,273426.898562999,0.310043096542358,66,Longer,Index,66,L,Index
221,Spatial,2314,1,3,43,1200,10,5,1,l,l,-1600,0,-1600,-400,S,=,L,0.308194149148294,0.328923496267607,1.04346561573621,1.79453460319515,1.13652710424129,273428.40527418,273428.729361629,273428.729361629,273430.32926451,1.6,273431.399297591,273431.399297591,273433.7993064,2.4,273435.7552549,273437.706795488,1.95154058816843,66,Shorter,Index,77,L,Ring
221,Spatial,2314,1,3,44,1600,5,5,2,l,l,-1600,-400,-1600,0,L,S,=,0.29510127766952,0.204991402392536,1.51541427769109,1.13059998380775,1.52603044794721,273439.022006387,273439.329585036,273439.329585036,273441.729510757,2.4,273443.269617809,273443.269617809,273446.469508627,3.2,273447.755331892,273448.810763939,1.05543204670539,66,Longer,Index,77,=,Ring
221,Spatial,2314,1,3,45,1600,3.75,5,2,l,l,-1600,-400,-1600,0,S,=,L,0.352074701140719,0.475229666911031,1.61004040271802,1.7845274092948,1.50021087912695,273450.505357717,273450.869569176,273450.869569176,273454.069544044,3.2,273455.709774733,273455.709774733,273458.909641491,3.2,273460.838793074,273461.194825718,0.356032643991057,77,Longer,Ring,78,=,Middle
221,Spatial,2314,1,3,46,1200,20,7.5,1,l,l,-1600,0,-1600,-400,L,S,=,0.432272253054794,0.240841642274164,1.32153581990759,1.91810262906876,1.32363050923332,273462.855445905,273463.299790535,273463.299790535,273464.099634324,0.8,273465.459947485,273465.459947485,273467.059823097,1.6,273469.122130024,273469.474595998,0.352465974108782,78,Shorter,Middle,66,L,Index
221,Spatial,2314,1,3,47,800,7.5,3.33333333333333,1,m,m,-800,400,-800,0,S,=,L,0.408782736895917,0.204273191447305,1.29235659869491,1.84032539634173,1.39839965734466,273470.938853825,273471.359797542,273471.359797542,273472.959798908,1.6,273474.280097132,273474.280097132,273476.679977621,2.4,273478.655554361,273479.07474145,0.419187088962644,66,Shorter,Index,77,L,Ring
221,Spatial,2314,1,3,48,400,5,5,2,r,r,0,400,0,400,=,L,S,0.374979021505004,0.376966735492761,1.61456023490021,1.49708075665963,1.66779020102442,273480.605518558,273481.00008208,273481.00008208,273481.799938701,0.8,273483.450338818,273483.450338818,273484.250167209,0.8,273485.905542371,273486.53890849,0.633366119349375,66,Equals to,Index,66,=,Index
221,Spatial,2314,1,3,49,400,1.25,1.25,2,r,r,0,400,0,400,=,L,S,0.422317108892193,0.313950046200797,1.23482909952046,1.91804359140442,1.10736960611254,273487.555593089,273487.990184692,273487.990184692,273491.190063962,3.2,273492.460488036,273492.460488036,273495.660341641,3.2,273497.722275796,273498.066625155,0.344349358696491,66,Equals to,Index,78,L,Middle
221,Spatial,2314,1,3,50,800,1.66666666666667,5,1,m,m,-800,-400,-800,0,L,S,=,0.472268547272848,0.319950798530415,1.580881306969,1.54969640005761,1.99006525560548,273499.33904228,273499.830326731,273499.830326731,273502.230177384,2.4,273503.830596204,273503.830596204,273505.430456418,1.6,273507.122349452,273508.178729149,1.05637969629606,66,Longer,Index,78,S,Middle
221,Spatial,2314,1,3,51,1200,20,7.5,1,l,l,-1600,0,-1600,-400,S,=,L,0.224758423782854,0.489769678697329,1.97389047987485,1.4673963395407,1.92558663036259,273510.322427343,273510.560608786,273510.560608786,273511.360582179,0.8,273513.360591527,273513.360591527,273514.960632352,1.6,273516.572384516,273516.922816925,0.350432409264613,66,Shorter,Index,78,=,Middle
221,Spatial,2314,1,3,52,800,15,5,1,r,r,0,1200,0,800,=,L,S,0.438532513619991,0.32576562061035,1.32276496547792,1.08416525437531,1.33385165577646,273518.989160095,273519.440599265,273519.440599265,273520.240441129,0.8,273521.590835087,273521.590835087,273523.190670598,1.6,273524.422435492,273524.970787435,0.548351943027228,77,Shorter,Ring,78,L,Middle
221,Spatial,2314,1,3,53,800,5,5,1,l,l,-1600,-400,-1600,-800,L,S,=,0.303837124396161,0.470759062511582,1.68077364190045,1.63417044053472,1.82189914794724,273526.455866926,273526.770974481,273526.770974481,273529.170572022,2.4,273530.880889642,273530.880889642,273532.480726758,1.6,273534.255891749,273534.586944122,0.331052372697741,78,Shorter,Middle,78,S,Middle
221,Spatial,2314,1,3,54,800,1.66666666666667,5,1,l,l,-1600,-1200,-1600,-800,=,L,S,0.488974831064095,0.376138697497384,1.11528041436376,1.63025503972311,1.76291331545351,273536.55588919,273537.060933438,273537.060933438,273539.460830287,2.4,273540.601022801,273540.601022801,273542.200906112,1.6,273543.98921816,273544.498854736,0.509636576054618,78,Longer,Middle,77,S,Ring
221,Spatial,2314,1,3,55,800,5,5,1,r,r,0,400,0,800,S,=,L,0.258852765143264,0.280410390422384,1.24438745910483,1.68823824299456,1.0929080832102,273546.405969679,273546.680859551,273546.680859551,273547.480828452,0.8,273548.751274342,273548.751274342,273550.351127177,1.6,273552.189339737,273553.258810671,1.06947093358031,77,Longer,Ring,66,S,Index
221,Spatial,2314,1,3,56,1600,3.75,5,2,l,l,-1600,-400,-1600,0,S,=,L,0.209987487231798,0.482907478535293,1.81506238412433,1.76901949563705,1.77340389113845,273554.505981677,273554.73117769,273554.73117769,273557.931028729,3.2,273559.771231765,273559.771231765,273562.971215616,3.2,273564.889344107,273565.250800883,0.361456775455736,77,Longer,Ring,78,=,Middle
221,Spatial,2314,1,3,57,400,3.33333333333333,1.25,2,l,l,-1600,-800,-1600,-1200,S,=,L,0.268469066734741,0.319645321628529,1.04943729119035,1.00883692223432,1.78757660497221,273567.172765757,273567.461558232,273567.461558232,273569.861408886,2.4,273570.941683576,273570.941683576,273574.141235306,3.2,273575.28946772,273575.698647113,0.409179393493105,66,Shorter,Index,77,L,Ring
221,Spatial,2314,1,3,58,1600,5,5,2,l,l,-1600,-400,-1600,0,S,=,L,0.39266545927053,0.352437858795001,1.07739008308872,1.98915246111643,1.00037160055233,273577.639506593,273578.051696581,273578.051696581,273580.45160113,2.4,273581.56180602,273581.56180602,273584.761657379,3.2,273586.889477561,273587.274798488,0.385320927249268,77,Longer,Ring,77,L,Ring
221,Spatial,2314,1,3,59,1200,5,5,1,l,l,-1600,-800,-1600,-400,S,=,L,0.372074840698316,0.219672934537176,1.68522810806634,1.39238518284829,1.90105889548765,273588.422884294,273588.811868095,273588.811868095,273590.411724459,1.6,273592.121874299,273592.121874299,273594.521764091,2.4,273596.056266559,273596.578770404,0.522503844695166,77,Longer,Ring,77,L,Ring
221,Spatial,2314,1,3,60,1200,2.5,5,1,r,r,0,800,0,1200,L,S,=,0.235952674244759,0.48926046842585,1.05776536649164,1.26359258290042,1.50842819474693,273598.639632027,273598.892040084,273598.892040084,273602.091649558,3.2,273603.181954449,273603.181954449,273605.581841674,2.4,273606.989599273,273608.346799966,1.35720069316449,66,Longer,Index,77,=,Ring
221,Spatial,2314,1,3,61,1600,5,5,2,r,r,0,1600,0,1600,S,=,L,0.398382097127567,0.368472082279871,1.52595215073794,1.66129200311624,1.911521497675,273610.022980342,273610.432033206,273610.432033206,273613.631992355,3.2,273615.181999682,273615.181999682,273618.381941508,3.2,273620.189678126,273620.570820606,0.381142479134724,78,Equals to,Middle,77,L,Ring
221,Spatial,2314,1,3,62,1200,2.5,5,1,m,m,-800,0,-800,400,=,L,S,0.329737031486398,0.235040898391899,1.2228562711785,1.04191846657424,1.13355656721464,273622.63972506,273622.982283656,273622.982283656,273626.18214496,3.2,273627.43226707,273627.43226707,273629.832152692,2.4,273631.006435291,273631.442912935,0.436477643612307,78,Longer,Middle,78,L,Middle
221,Spatial,2314,1,3,63,1600,20,20,2,r,r,0,1600,0,1600,S,=,L,0.383684750816977,0.397860515676891,1.11069664493643,1.36625132045896,1.34139736224734,273632.723119827,273633.122248676,273633.122248676,273633.922108825,0.8,273635.062404637,273635.062404637,273635.862281147,0.8,273637.373179216,273637.75487892,0.381699703924824,78,Equals to,Middle,78,=,Middle
221,Spatial,2314,1,3,64,800,7.5,3.33333333333333,1,l,l,-1600,-400,-1600,-800,L,S,=,0.485242000387074,0.415395773115986,1.83207102026121,1.08344871122462,1.77327847051757,273639.239870511,273639.742467681,273639.742467681,273641.342195403,1.6,273643.202605767,273643.202605767,273645.602479518,2.4,273646.839838239,273648.114851985,1.27501374634448,78,Shorter,Middle,77,=,Ring
221,Spatial,2314,1,3,65,800,3.75,3.33333333333333,1,r,r,0,1200,0,800,=,L,S,0.346366764716644,0.252204266040748,1.39661774262252,1.38426441247445,1.07764795094724,273650.039752841,273650.402575227,273650.402575227,273653.602442305,3.2,273655.032751289,273655.032751289,273657.432636269,2.4,273658.956641128,273659.418941635,0.462300507468171,77,Shorter,Ring,77,S,Ring
221,Spatial,2314,1,3,66,1600,5,5,2,l,l,-1600,0,-1600,0,L,S,=,0.316816446231235,0.397481381303401,1.08741226636031,1.49445750834768,1.10502974458432,273660.6566646,273660.992633054,273660.992633054,273664.192527401,3.2,273665.312722391,273665.312722391,273668.512732548,3.2,273670.15664577,273670.530857639,0.37421186931897,77,Equals to,Ring,77,=,Ring
221,Spatial,2314,1,3,67,400,10,5,2,m,m,-800,0,-800,-400,=,L,S,0.455021393138154,0.403543291462457,1.19609028775706,1.92949081480867,1.30408496569262,273671.790073162,273672.263028212,273672.263028212,273673.06288772,0.8,273674.2828278,273674.2828278,273675.082783228,0.8,273677.156757194,273677.538881222,0.382124027761165,77,Shorter,Ring,77,S,Ring
221,Spatial,2314,1,3,68,1200,10,7.5,1,m,m,-800,0,-800,400,L,S,=,0.205174323393214,0.466202881884532,1.77093432451124,1.73915439227403,1.67243354421203,273678.990105178,273679.213199617,273679.213199617,273680.01304533,0.8,273681.813044477,273681.813044477,273683.412889613,1.6,273685.290069954,273685.610840354,0.320770399994217,66,Longer,Index,66,L,Index
221,Spatial,2314,1,3,69,1200,10,5,1,m,m,-800,800,-800,400,=,L,S,0.289906330151807,0.448628054329305,1.47294276390153,1.44222956730223,1.1720000591124,273687.440160452,273687.743286689,273687.743286689,273689.343208817,1.6,273690.843287459,273690.843287459,273693.243202914,2.4,273694.823531874,273695.218921489,0.39538961526705,77,Shorter,Ring,78,L,Middle
221,Spatial,2314,1,3,70,400,5,5,2,m,m,-800,0,-800,-400,L,S,=,0.287349813541908,0.201129349998423,1.08456996196013,1.19439266889097,1.31906940867153,273696.540219929,273696.843331088,273696.843331088,273698.443193547,1.6,273699.553308612,273699.553308612,273700.353101073,0.8,273701.706850666,273702.234733506,0.527882840484381,78,Shorter,Middle,78,S,Middle
221,Spatial,2314,1,3,71,800,5,5,1,l,l,-1600,-1200,-1600,-800,=,L,S,0.401937173931279,0.431528406992974,1.82055953995449,1.88264288601361,1.81495027544168,273703.706879538,273704.12312222,273704.12312222,273704.923132184,0.8,273706.773419636,273706.773419636,273708.373415549,1.6,273710.406945238,273710.762917259,0.355972020945046,78,Longer,Middle,78,L,Middle
221,Spatial,2314,1,3,72,1200,5,5,1,m,m,-800,800,-800,400,S,=,L,0.482215854959762,0.494492958460448,1.67294373716756,1.92861577598738,1.95589073618672,273712.740317068,273713.233346634,273713.233346634,273716.433299367,3.2,273718.123411904,273718.123411904,273720.523428413,2.4,273722.606985916,273723.002775259,0.395789343339857,66,Shorter,Index,77,L,Ring
221,Spatial,2314,1,3,73,800,15,5,1,m,m,-800,400,-800,0,L,S,=,0.403781462953091,0.484727446798001,1.44828676459085,1.33070049435071,1.92831824921062,273724.090371572,273724.513686658,273724.513686658,273725.313516973,0.8,273726.783489615,273726.783489615,273728.383450882,1.6,273729.873670034,273730.178736527,0.305066492641345,78,Shorter,Middle,66,L,Index
221,Spatial,2314,1,3,74,800,1.25,3.33333333333333,1,r,r,0,400,0,800,S,=,L,0.245255121920105,0.448170631686258,1.59827517130828,1.89857017257617,1.95805861456526,273732.273717385,273732.533795821,273732.533795821,273735.733812394,3.2,273737.373877228,273737.373877228,273739.773760283,2.4,273741.823751935,273742.226878024,0.403126088727731,77,Longer,Ring,78,=,Middle
221,Spatial,2314,1,3,75,1200,3.33333333333333,7.5,1,m,m,-800,0,-800,400,L,S,=,0.49082981088346,0.463375283286795,1.83425339396551,1.47885155163962,1.39890351855416,273744.323832457,273744.833938321,273744.833938321,273747.233980173,2.4,273749.104209008,273749.104209008,273750.704052861,1.6,273752.340535623,273752.866913299,0.526377676869743,66,Longer,Index,78,S,Middle
221,Spatial,2314,1,3,76,400,2.5,5,2,l,l,-1600,-1200,-1600,-1200,S,=,L,0.309296794368498,0.408057501696379,1.57849688246251,1.97043094878394,1.64900920079846,273754.423861778,273754.744288554,273754.744288554,273756.344148447,1.6,273757.95435462,273757.95435462,273758.753900062,0.8,273760.873862837,273761.354967269,0.481104431964923,78,Equals to,Middle,66,S,Index
221,Spatial,2314,1,3,77,400,1.25,1.25,2,l,l,-1600,-1200,-1600,-1200,=,L,S,0.426183470786846,0.202277321728639,1.42262604041759,1.3402832080023,1.1622933585837,273763.157275504,273763.594220512,273763.594220512,273766.794261786,3.2,273768.24425904,273768.24425904,273771.444078319,3.2,273772.92399732,273773.330961001,0.406963681685738,66,Equals to,Index,78,L,Middle
221,Spatial,2314,1,3,78,1200,2.5,5,1,m,m,-800,0,-800,400,L,S,=,0.460637533833998,0.219391009163127,1.67938366736307,1.73622646064689,1.36436895343755,273774.657295073,273775.134533473,273775.134533473,273778.334472412,3.2,273780.054563911,273780.054563911,273782.454429643,2.4,273784.34067457,273784.882708635,0.54203406535089,66,Longer,Index,78,S,Middle
221,Spatial,2314,1,3,79,400,1.66666666666667,1.25,2,r,r,0,400,0,400,S,=,L,0.225206706637618,0.298277716426195,1.09268054141063,1.65635983987168,1.40315806300001,273786.407434783,273786.644635854,273786.644635854,273789.044525646,2.4,273790.164831954,273790.164831954,273793.364376627,3.2,273795.157404467,273795.754992484,0.597588016884401,78,Equals to,Middle,77,L,Ring
221,Spatial,2314,1,3,80,1200,6.66666666666667,7.5,1,m,m,-800,800,-800,400,L,S,=,0.368390443048897,0.261224650519886,1.56658701725611,1.45533291136639,1.69057723451485,273797.307537085,273797.694717242,273797.694717242,273800.094582652,2.4,273801.684807984,273801.684807984,273803.284691616,1.6,273804.890439326,273805.266925682,0.376486356602982,78,Shorter,Middle,78,S,Middle
221,Spatial,2314,1,3,81,800,1.25,3.33333333333333,1,r,r,0,400,0,800,S,=,L,0.290400315976911,0.267287930588738,1.97605906819998,1.6902860809552,1.94226155735332,273807.107554698,273807.414867403,273807.414867403,273810.614920547,3.2,273812.615157344,273812.615157344,273815.014989391,2.4,273816.840945482,273817.410754443,0.569808961590752,77,Longer,Ring,66,S,Index
221,Spatial,2314,1,3,82,1600,15,20,2,l,l,-1600,-400,-1600,0,=,L,S,0.377902950704591,0.428534941546594,1.74887410000404,1.96204800445215,1.36822222366971,273819.50763862,273819.905021664,273819.905021664,273820.70503259,0.8,273822.485279948,273822.485279948,273823.284921631,0.8,273825.40758973,273828.234815311,2.82722558098612,78,Longer,Middle,66,=,Index
221,Spatial,2314,1,3,83,800,7.5,3.33333333333333,1,r,r,0,1200,0,800,=,L,S,0.414986644023572,0.452833514159825,1.26173876301684,1.51912417917579,1.0271356053952,273829.757699091,273830.185430019,273830.185430019,273831.784981942,1.6,273833.08540551,273833.08540551,273835.485303001,2.4,273837.157726463,273837.618919757,0.461193293216638,77,Shorter,Ring,78,L,Middle
221,Spatial,2314,1,3,84,1200,6.66666666666667,7.5,1,m,m,-800,800,-800,400,S,=,L,0.310502585507743,0.454447225872263,1.95840094592027,1.49790617735282,1.78779793956373,273838.791023049,273839.115430667,273839.115430667,273841.515393923,2.4,273843.495496855,273843.495496855,273845.095295154,1.6,273846.741097259,273847.059006424,0.317909165518358,66,Shorter,Index,66,S,Index
221,Spatial,2314,1,3,85,800,2.5,3.33333333333333,1,l,l,-1600,-1200,-1600,-800,S,=,L,0.214345368544459,0.437412097778595,1.62467763156198,1.5528157108597,1.13185772488879,273848.991142011,273849.225389136,273849.225389136,273850.82522946,1.6,273852.485592409,273852.485592409,273854.885413228,2.4,273856.591181208,273856.970878222,0.379697013355326,77,Longer,Ring,77,L,Ring
221,Spatial,2314,1,3,86,800,2.5,3.33333333333333,1,r,r,0,400,0,800,S,=,L,0.419270464953082,0.28772882830056,1.66693329405566,1.36593669371591,1.61604134866041,273858.257865267,273858.695568651,273858.695568651,273860.295459661,1.6,273861.985543006,273861.985543006,273864.385454291,2.4,273865.907870432,273866.322946722,0.415076289966237,77,Longer,Ring,78,=,Middle
221,Spatial,2314,1,3,87,800,1.66666666666667,5,1,l,l,-1600,-1200,-1600,-800,L,S,=,0.208020825276811,0.371788288020909,1.16127076861021,1.12410066503328,1.48753442241318,273868.124599559,273868.345857726,273868.345857726,273870.745778635,2.4,273871.935887323,273871.935887323,273873.535730534,1.6,273874.807962041,273875.371100409,0.563138367666397,66,Longer,Index,77,=,Ring
221,Spatial,2314,1,3,88,400,2.5,1.25,2,l,l,-1600,-800,-1600,-1200,=,L,S,0.375776262691739,0.41109734440403,1.61360487794111,1.7380548839879,1.1429604282285,273877.007997549,273877.39579411,273877.39579411,273880.595671455,3.2,273882.235945773,273882.235945773,273885.435849423,3.2,273887.32465371,273887.698972727,0.374319017224479,77,Shorter,Ring,66,=,Index
221,Spatial,2314,1,3,89,1200,3.33333333333333,7.5,1,r,r,0,800,0,1200,S,=,L,0.474439408740653,0.428401431460874,1.73069546992676,1.82459376940423,1.37282995301886,273888.99139384,273889.48611243,273889.48611243,273891.885996447,2.4,273893.656191148,273893.656191148,273895.255884224,1.6,273897.224703627,273897.546983401,0.322279774118215,77,Longer,Ring,66,S,Index
221,Spatial,2314,1,3,90,1600,7.5,20,2,r,r,0,1200,0,1600,=,L,S,0.220400364770561,0.200986688304842,1.9875779691642,1.70415840324705,1.71227847355855,273899.074787003,273899.306451671,273899.306451671,273900.905958361,1.6,273902.926250747,273902.926250747,273903.726082024,0.8,273905.574761981,273906.034799014,0.460037033364642,78,Longer,Middle,77,S,Ring
221,Spatial,2314,1,3,91,800,1.25,3.33333333333333,1,l,l,-1600,-1200,-1600,-800,S,=,L,0.230439738884568,0.282371025755641,1.9644595668478,1.22553538636628,1.64566127865773,273907.908130602,273908.156293484,273908.156293484,273911.356160884,3.2,273913.356602352,273913.356602352,273915.75643055,2.4,273917.124887871,273917.514853461,0.389965589740314,77,Longer,Ring,78,=,Middle
221,Spatial,2314,1,3,92,1200,20,7.5,1,l,l,-1600,0,-1600,-400,L,S,=,0.343343063661967,0.430359988389701,1.02002283457403,1.69049382992192,1.18064652459877,273919.308216435,273919.666696136,273919.666696136,273920.466543132,0.8,273921.506342855,273921.506342855,273923.106364753,1.6,273924.941537656,273925.298981196,0.357443540415261,78,Shorter,Middle,66,L,Index
221,Spatial,2314,1,3,93,800,2.5,3.33333333333333,1,r,r,0,400,0,800,S,=,L,0.452328204201382,0.236595179413455,1.94808877813859,1.00112916538626,1.93581973301603,273926.641578334,273927.106803656,273927.106803656,273928.70639215,1.6,273930.6866542,273930.6866542,273933.086511912,2.4,273934.241665359,273935.002969986,0.761304627056234,77,Longer,Ring,77,L,Ring
221,Spatial,2314,1,3,94,1600,15,20,2,r,r,0,1200,0,1600,S,=,L,0.439052974458839,0.479075825271505,1.54487058005489,1.99204583852977,1.08194892676655,273937.091643553,273937.546832579,273937.546832579,273938.34649319,0.8,273939.917034421,273939.917034421,273940.716560616,0.8,273942.841647242,273943.275041335,0.433394093299285,77,Longer,Ring,78,=,Middle
221,Spatial,2314,1,3,95,800,5,5,1,m,m,-800,400,-800,0,=,L,S,0.202598554863691,0.226619658795984,1.77518163024197,1.34987436408295,1.47980592507308,273944.508356575,273944.727031964,273944.727031964,273947.126909565,2.4,273948.936850371,273948.936850371,273950.53666086,1.6,273952.041772523,273952.539057663,0.497285140154418,77,Shorter,Ring,77,S,Ring
221,Spatial,2314,1,3,96,800,5,5,1,l,l,-1600,-1200,-1600,-800,=,L,S,0.257901321305363,0.282346787649303,1.00131802482807,1.26181078264795,1.01317865245958,273954.158454005,273954.436876997,273954.436876997,273955.236854881,0.8,273956.277085442,273956.277085442,273957.876913896,1.6,273959.29177181,273959.618987125,0.32721531536663,78,Longer,Middle,78,L,Middle
