Subject,Task,SequenceOrder,ListNo,RunNo,TrialNo,Aud_Probe_Dist,Aud_Standard_Vel,Aud_Probe_Vel,Main_Control,Aud_Std_StartCode,Aud_Probe_StartCode,Aud_Std_StartPt,Aud_Std_EndPt,Aud_Probe_StartPt,Aud_Probe_EndPt,RespIndex,RespMiddle,RespRing,ISI_Cross_Std,ISI_Cross_Probe,ISI_Std_Probe,ISI_Probe_Response,ITI,TrialOnset,StdOnset,StdOnsetByStop,StdOffset,StdDur,ProbeOnset,ProbeOnsetByStop,ProbeOffset,ProbeDur,RespWinStart,RespTime,RT,CorrectKC,CorrectResponse,CorrectFinger,SubjRespKC,SubjResponse,SubjRespFinger
232,Spatial,3421,3,1,1,800,15,5,1,m,m,-800,400,-800,0,S,=,L,0.357255844474328,0.290420565107953,1.82588517522151,1.47869883869393,1.96365731712062,1296554.85381495,1296555.22321057,1296555.22321057,1296556.02130631,0.8,1296557.88133909,1296557.88133909,1296559.4813658,1.6,1296561.12052988,1296561.76148392,0.64095403579995,66,Shorter,Index,66,S,Index
232,Spatial,3421,3,1,2,1600,15,20,2,m,m,-800,400,-800,800,L,S,=,0.369680262434064,0.394553524890727,1.30302101321798,1.82793319021347,1.68119857900233,1296563.88723671,1296564.27143066,1296564.27143066,1296565.07144287,0.8,1296566.40145627,1296566.40145627,1296567.20146463,0.8,1296569.18724228,1296569.81747576,0.630233486182988,66,Longer,Index,66,L,Index
232,Spatial,3421,3,1,3,400,1.66666666666667,1.25,2,l,l,-1600,-1200,-1600,-1200,S,=,L,0.494399196602528,0.42943641089935,1.18685998703117,1.49579445421304,1.14417622267655,1296571.67061459,1296572.18154575,1296572.18154575,1296574.58158022,2.4,1296575.8016082,1296575.8016082,1296579.00164145,3.2,1296580.65399081,1296582.44143725,1.78744643414393,78,Equals to,Middle,77,L,Ring
232,Spatial,3421,3,1,4,800,1.25,3.33333333333333,1,m,m,-800,-400,-800,0,S,=,L,0.368990183440559,0.494559716227551,1.46090384582122,1.26333237250113,1.30044472278214,1296583.77069295,1296584.1517259,1296584.1517259,1296587.35176333,3.2,1296588.85179257,1296588.85179257,1296591.25182255,2.4,1296592.67070653,1296593.18548941,0.514782884391025,77,Longer,Ring,77,L,Ring
232,Spatial,3421,3,1,5,800,2.5,3.33333333333333,1,l,l,-1600,-1200,-1600,-800,S,=,L,0.40004440714434,0.466900349071364,1.93924282686332,1.7933707356118,1.09681855577981,1296594.6540838,1296595.07188338,1296595.07188338,1296596.67189726,1.6,1296598.6419501,1296598.6419501,1296601.04195987,2.4,1296602.98746296,1296603.51346824,0.526005279971287,77,Longer,Ring,77,L,Ring
232,Spatial,3421,3,1,6,1200,20,7.5,1,l,l,-1600,0,-1600,-400,S,=,L,0.328822268659838,0.283581119248696,1.65534382296031,1.98098401294009,1.2377529101169,1296604.77081444,1296605.1120292,1296605.1120292,1296605.91203275,0.8,1296607.59205831,1296607.59205831,1296609.19207764,1.6,1296611.32084322,1296611.82552533,0.504682107595727,66,Shorter,Index,66,S,Index
232,Spatial,3421,3,1,7,1200,5,5,1,m,m,-800,800,-800,400,L,S,=,0.439468360046056,0.409365585201984,1.40364585804546,1.6503907065686,1.0283420249791,1296613.23746261,1296613.69215596,1296613.69215596,1296616.8921921,3.2,1296618.32223097,1296618.32223097,1296620.72224876,2.4,1296622.52091722,1296623.17751042,0.656593205407262,78,Shorter,Middle,77,=,Ring
232,Spatial,3421,3,1,8,800,5,5,1,r,r,0,1200,0,800,S,=,L,0.266982912556996,0.204711266825095,1.9603579395129,1.7360917144394,1.12428423996871,1296624.38758606,1296624.67231306,1296624.67231306,1296627.07234465,2.4,1296629.0623748,1296629.0623748,1296630.66239478,1.6,1296632.53762817,1296633.12155643,0.583928260952234,66,Shorter,Index,66,S,Index
232,Spatial,3421,3,1,9,400,3.33333333333333,1.25,2,r,r,0,800,0,400,=,L,S,0.459738664794947,0.343909774949289,1.466578065541,1.27641315959216,1.63526249173974,1296634.43765072,1296634.91246395,1296634.91246395,1296637.31248656,2.4,1296638.80252441,1296638.80252441,1296642.00257852,3.2,1296643.43769467,1296644.1455149,0.707820224575698,77,Shorter,Ring,66,=,Index
232,Spatial,3421,3,1,10,1600,6.66666666666667,5,2,m,m,-800,800,-800,800,S,=,L,0.46646635899691,0.379396737333588,1.14169324860248,1.54753602094431,1.32559067926595,1296645.95437888,1296646.4326299,1296646.4326299,1296648.83265956,2.4,1296650.01268351,1296650.01268351,1296653.21271612,3.2,1296654.90442053,1296655.38554966,0.481129133608192,78,Equals to,Middle,78,=,Middle
232,Spatial,3421,3,1,11,1200,5,5,1,l,l,-1600,0,-1600,-400,L,S,=,0.308546883081188,0.417062103461047,1.0661379719903,1.3557041945593,1.98998082141286,1296656.88779059,1296657.21279926,1296657.21279926,1296660.41282128,3.2,1296661.50284996,1296661.50284996,1296663.90288155,2.4,1296665.40447153,1296665.9855222,0.581050665583462,78,Shorter,Middle,78,S,Middle
232,Spatial,3421,3,1,12,1200,10,5,1,l,l,-1600,0,-1600,-400,=,L,S,0.239144723152223,0.375470975725317,1.35994203274161,1.28204684283717,1.3587862489062,1296668.13785418,1296668.39295084,1296668.39295084,1296669.99296889,1.6,1296671.38299218,1296671.38299218,1296673.78302377,2.4,1296675.22122576,1296676.1535388,0.932313037337735,77,Shorter,Ring,66,=,Index
232,Spatial,3421,3,1,13,1200,2.5,5,1,l,l,-1600,-800,-1600,-400,L,S,=,0.371114526996438,0.37808835785322,1.85842130342422,1.32823802523377,1.53607180502525,1296677.7045753,1296678.09308487,1296678.09308487,1296681.29313545,3.2,1296683.18336951,1296683.18336951,1296685.58319418,2.4,1296687.07129186,1296687.67352253,0.602230665739626,66,Longer,Index,77,=,Ring
232,Spatial,3421,3,1,14,400,1.25,1.25,2,r,r,0,400,0,400,S,=,L,0.344179181199983,0.248433383711507,1.2676496224637,1.6328512748456,1.09484057861727,1296689.40459312,1296689.76326047,1296689.76326047,1296692.96331843,3.2,1296694.25332202,1296694.25332202,1296697.45337645,3.2,1296699.23803135,1296699.75356716,0.515535807004198,78,Equals to,Middle,78,=,Middle
232,Spatial,3421,3,1,15,1600,15,20,2,r,r,0,1200,0,1600,L,S,=,0.377770333687726,0.437349634380793,1.70801483926486,1.2376630475755,1.30009067922957,1296701.02138315,1296701.41342796,1296701.41342796,1296702.21344146,0.8,1296703.94347044,1296703.94347044,1296704.74347303,0.8,1296706.12140143,1296706.72953266,0.608131227083504,66,Longer,Index,77,=,Ring
232,Spatial,3421,3,1,16,1600,5,5,2,r,r,0,1200,0,1600,L,S,=,0.228132570873801,0.235577556309699,1.4382486638719,1.31921150645006,1.68754464027939,1296708.2047527,1296708.44352658,1296708.44352658,1296710.84356844,2.4,1296712.30358242,1296712.30358242,1296715.50363171,3.2,1296716.97144315,1296717.38553907,0.414095918647945,66,Longer,Index,66,L,Index
232,Spatial,3421,3,1,17,400,1.25,1.25,2,r,r,0,400,0,400,=,L,S,0.338392422892365,0.494698078919557,1.35555937559311,1.52213210129117,1.06352154281276,1296719.25482163,1296719.60369797,1296719.60369797,1296722.803737,3.2,1296724.19376157,1296724.19376157,1296727.39380092,3.2,1296729.05485943,1296729.56954638,0.51468694745563,66,Equals to,Index,66,=,Index
232,Spatial,3421,3,1,18,400,10,5,2,r,r,0,800,0,400,=,L,S,0.447968426166702,0.226110287043134,1.67832443707462,1.70301459119109,1.3506327661426,1296730.78823056,1296731.25386739,1296731.25386739,1296732.05388024,0.8,1296733.76391042,1296733.76391042,1296734.56390819,0.8,1296736.40492377,1296736.93756324,0.532639468787238,77,Shorter,Ring,77,S,Ring
232,Spatial,3421,3,1,19,1600,10,20,2,m,m,-800,800,-800,800,S,=,L,0.261607042748284,0.464013972250057,1.41013918268625,1.2645705486595,1.99695578586302,1296738.47159388,1296738.74397321,1296738.74397321,1296740.34399286,1.6,1296741.78402664,1296741.78402664,1296742.58402537,0.8,1296744.00495008,1296744.78556685,0.780616775620729,78,Equals to,Middle,78,=,Middle
232,Spatial,3421,3,1,20,400,2.5,5,2,r,r,0,400,0,400,S,=,L,0.449403580299419,0.457631497651412,1.86510285855256,1.65774243695531,1.06616395683303,1296746.93830718,1296747.40410096,1296747.40410096,1296749.00412029,1.6,1296750.90415421,1296750.90415421,1296751.7041645,0.8,1296753.50501831,1296754.05756699,0.552548676729202,78,Equals to,Middle,66,S,Index
232,Spatial,3421,3,1,21,1200,5,5,1,r,r,0,800,0,1200,S,=,L,0.401363575469077,0.498071520665948,1.20171755342469,1.98490367493949,1.04443033094796,1296755.30504064,1296755.7242227,1296755.7242227,1296757.32425422,1.6,1296758.55426749,1296758.55426749,1296760.95429298,2.4,1296763.08839325,1296763.70557291,0.61717966129072,77,Longer,Ring,77,L,Ring
232,Spatial,3421,3,1,22,800,1.66666666666667,5,1,r,r,0,400,0,800,L,S,=,0.375439983594619,0.46063601994242,1.10905174902402,1.1270079307302,1.21108767853207,1296764.93839893,1296765.32435307,1296765.32435307,1296767.72439974,2.4,1296768.86441292,1296768.86441292,1296770.46443322,1.6,1296771.73846027,1296772.24957991,0.511119644390419,66,Longer,Index,77,=,Ring
232,Spatial,3421,3,1,23,1600,20,20,2,l,l,-1600,0,-1600,0,S,=,L,0.323016720924745,0.467036997537738,1.25019676557418,1.96107370987139,1.58380516876658,1296773.62180738,1296773.96448651,1296773.96448651,1296774.76449231,0.8,1296776.03450928,1296776.03450928,1296776.83452534,0.8,1296778.9551482,1296779.48154906,0.526400859234855,78,Equals to,Middle,78,=,Middle
232,Spatial,3421,3,1,24,800,1.66666666666667,5,1,m,m,-800,-400,-800,0,=,L,S,0.303982163351118,0.386220101047121,1.20468419125986,1.68662429701844,1.41005907546129,1296781.23852226,1296781.55460305,1296781.55460305,1296783.95463014,2.4,1296785.19464923,1296785.19464923,1296786.79466407,1.6,1296788.62189584,1296789.12958803,0.507692194310948,78,Longer,Middle,78,L,Middle
232,Spatial,3421,3,1,25,400,2.5,1.25,2,m,m,-800,0,-800,-400,L,S,=,0.450922188240262,0.217454926777492,1.63301270012747,1.78666550900952,1.4088488131979,1296793.45526345,1296793.92477506,1296793.92477506,1296797.12482339,3.2,1296798.78484083,1296798.78484083,1296801.98489109,3.2,1296803.92198252,1296804.48959157,0.567609054967761,78,Shorter,Middle,77,=,Ring
232,Spatial,3421,3,1,26,1200,6.66666666666667,7.5,1,l,l,-1600,0,-1600,-400,L,S,=,0.238537482358129,0.217596566003242,1.44353665816694,1.49641014672904,1.36619059858181,1296806.08867833,1296806.34496686,1296806.34496686,1296808.74498754,2.4,1296810.2150099,1296810.2150099,1296811.81503437,1.6,1296813.47202124,1296813.9695809,0.497559658018872,78,Shorter,Middle,78,S,Middle
232,Spatial,3421,3,1,27,800,2.5,3.33333333333333,1,l,l,-1600,-1200,-1600,-800,L,S,=,0.26242545671054,0.232805546543961,1.95900619099,1.90118212603046,1.52906681692789,1296815.50538246,1296815.78510518,1296815.78510518,1296817.38512226,1.6,1296819.37515979,1296819.37515979,1296821.77517662,2.4,1296823.82208438,1296824.32959631,0.507511933567002,66,Longer,Index,66,L,Index
232,Spatial,3421,3,1,28,1200,3.33333333333333,7.5,1,m,m,-800,0,-800,400,=,L,S,0.213934236327827,0.357867208296678,1.01093094672616,1.37203038701504,1.16190331922034,1296826.03879653,1296826.26524656,1296826.26524656,1296828.66528135,2.4,1296829.71529157,1296829.71529157,1296831.31532694,1.6,1296832.83882065,1296834.07365136,1.23483070963994,78,Longer,Middle,78,L,Middle
232,Spatial,3421,3,1,29,800,5,5,1,m,m,-800,-400,-800,0,=,L,S,0.271701441930726,0.361437610600874,1.43272687297271,1.85118808370291,1.21235881296615,1296835.4053223,1296835.69538323,1296835.69538323,1296836.4953964,0.8,1296837.9554261,1296837.9554261,1296839.55543869,1.6,1296841.5555078,1296842.07360517,0.518097368068993,78,Longer,Middle,78,L,Middle
232,Spatial,3421,3,1,30,1200,3.33333333333333,7.5,1,l,l,-1600,-800,-1600,-400,=,L,S,0.459660583510636,0.401188000657981,1.55716928056267,1.70290065485587,1.62313908829969,1296843.4722041,1296843.94550978,1296843.94550978,1296846.34553752,2.4,1296847.92556551,1296847.92556551,1296849.52559479,1.6,1296851.3722415,1296851.81764033,0.445398830808699,78,Longer,Middle,78,L,Middle
232,Spatial,3421,3,1,31,800,15,5,1,m,m,-800,400,-800,0,S,=,L,0.270064769443385,0.406721268967026,1.47687493719496,1.78756381660849,1.7918747600635,1296853.60561379,1296853.89564975,1296853.89564975,1296854.69566196,0.8,1296856.19568125,1296856.19568125,1296857.79570155,1.6,1296859.72229432,1296861.70562456,1.98333024512976,66,Shorter,Index,66,S,Index
232,Spatial,3421,3,1,32,1600,7.5,20,2,l,l,-1600,-400,-1600,0,L,S,=,0.238948771203302,0.421125019695882,1.02340658244837,1.76812648181697,1.06140670003062,1296863.6723362,1296863.92579425,1296863.92579425,1296865.52580684,1.6,1296866.57583598,1296866.57583598,1296867.37583408,0.8,1296869.3056866,1296871.37761654,2.07192993932404,66,Longer,Index,77,=,Ring
232,Spatial,3421,3,1,33,800,7.5,3.33333333333333,1,m,m,-800,400,-800,0,=,L,S,0.226805051148258,0.322455577517506,1.3247097924378,1.0933026838927,1.33400910448595,1296872.62238598,1296872.86592486,1296872.86592486,1296874.46594676,1.6,1296875.82598628,1296875.82598628,1296878.22600118,2.4,1296879.47233627,1296880.16162911,0.689292842987925,77,Shorter,Ring,77,S,Ring
232,Spatial,3421,3,1,34,1200,6.66666666666667,7.5,1,r,r,0,1600,0,1200,=,L,S,0.403499789519862,0.434390408523317,1.00324036019195,1.08578871729546,1.35465083771025,1296881.67245091,1296882.0960616,1296882.0960616,1296884.49609222,2.4,1296885.52610876,1296885.52610876,1296887.12613034,1.6,1296888.35581409,1296889.11362973,0.757815636927262,77,Shorter,Ring,66,=,Index
232,Spatial,3421,3,1,35,800,3.75,3.33333333333333,1,l,l,-1600,-400,-1600,-800,=,L,S,0.48046172020226,0.227452829830112,1.1604327929966,1.15178363562047,1.54186318761542,1296890.65582644,1296891.15618954,1296891.15618954,1296894.35623178,3.2,1296895.54625449,1296895.54625449,1296897.94628704,2.4,1296899.23920773,1296899.72163836,0.482430628268048,77,Shorter,Ring,66,=,Index
232,Spatial,3421,3,1,36,1600,7.5,20,2,l,l,-1600,-400,-1600,0,L,S,=,0.321693951914028,0.497558804798997,1.3445184971843,1.47836372636265,1.51359873383573,1296901.43918842,1296901.77634535,1296901.77634535,1296903.37636212,1.6,1296904.74638756,1296904.74638756,1296905.54639977,0.8,1296907.17256269,1296908.36963338,1.19707069126889,66,Longer,Index,66,L,Index
232,Spatial,3421,3,1,37,1200,20,7.5,1,m,m,-800,800,-800,400,=,L,S,0.499947749202629,0.419848006089452,1.21520109347198,1.60399010480712,1.99866361264291,1296910.03928112,1296910.55648969,1296910.55648969,1296911.35648265,0.8,1296912.60651686,1296912.60651686,1296914.20652785,1.6,1296915.95595764,1296916.52964597,0.573688333621249,77,Shorter,Ring,66,=,Index
232,Spatial,3421,3,1,38,1200,20,7.5,1,r,r,0,1600,0,1200,L,S,=,0.387894338617891,0.276272099899561,1.1483054728692,1.67520890400515,1.94141929509568,1296918.68927957,1296919.09660311,1296919.09660311,1296919.89660249,0.8,1296921.06662094,1296921.06662094,1296922.66664733,1.6,1296924.48931889,1296925.96962966,1.48031076742336,78,Shorter,Middle,77,=,Ring
232,Spatial,3421,3,1,39,400,2.5,1.25,2,m,m,-800,0,-800,-400,=,L,S,0.291911298450901,0.316833872865096,1.16433393465169,1.6076934482707,1.11044715779374,1296928.08937342,1296928.39674368,1296928.39674368,1296931.59676732,3.2,1296932.7867942,1296932.7867942,1296935.98683676,3.2,1296937.73940875,1296938.50570418,0.766295430716127,77,Shorter,Ring,66,=,Index
232,Spatial,3421,3,1,40,1200,2.5,5,1,r,r,0,800,0,1200,=,L,S,0.270277046601611,0.384885510598518,1.9304092629149,1.8494652060392,1.53783772325988,1296939.80610525,1296940.08689564,1296940.08689564,1296943.28695584,3.2,1296945.24696501,1296945.24696501,1296947.64700397,2.4,1296949.63949216,1296950.20166362,0.562171458499506,78,Longer,Middle,77,S,Ring
232,Spatial,3421,3,1,41,400,5,5,2,r,r,0,800,0,400,S,=,L,0.393188539603698,0.463927247165785,1.92988694182059,1.44588734874952,1.74909976889143,1296951.906194,1296952.3170776,1296952.3170776,1296953.91709629,1.6,1296955.88713374,1296955.88713374,1296956.68714145,0.8,1296958.28953904,1296959.67365823,1.38411918538623,66,Shorter,Index,66,S,Index
232,Spatial,3421,3,1,42,1200,10,5,1,l,l,-1600,0,-1600,-400,L,S,=,0.286081254366553,0.476516851667464,1.63435184604471,1.38259198888854,1.91499340309203,1296961.60624875,1296961.9072182,1296961.9072182,1296963.5072433,1.6,1296965.1772717,1296965.1772717,1296967.57729462,2.4,1296969.10625834,1296969.64169478,0.535436447942629,78,Shorter,Middle,78,S,Middle
232,Spatial,3421,3,1,43,800,1.66666666666667,5,1,m,m,-800,-400,-800,0,L,S,=,0.465788822311114,0.337310570891615,1.07949411013231,1.51213417761496,1.53960831100928,1296971.73963866,1296972.21735914,1296972.21735914,1296974.61740163,2.4,1296975.73742275,1296975.73742275,1296977.33745395,1.6,1296979.00631884,1296979.56169892,0.555380076635629,66,Longer,Index,66,L,Index
232,Spatial,3421,3,1,44,1200,5,5,1,r,r,0,1600,0,1200,S,=,L,0.351246785235738,0.282009463864285,1.35911307531426,1.686652159616,1.62969252500598,1296981.28969411,1296981.65750195,1296981.65750195,1296984.85754707,3.2,1296986.24756876,1296986.24756876,1296988.64762633,2.4,1296990.47308117,1296991.1536591,0.680577931459993,66,Shorter,Index,78,=,Middle
232,Spatial,3421,3,1,45,1600,6.66666666666667,5,2,m,m,-800,800,-800,800,S,=,L,0.31392650125359,0.437267735287604,1.23848469814663,1.78184965682662,1.2874072335755,1296992.956427,1296993.28767737,1296993.28767737,1296995.68771216,2.4,1296996.95773106,1296996.95773106,1297000.15777426,3.2,1297002.08978135,1297002.52967741,0.439896057359874,78,Equals to,Middle,78,=,Middle
232,Spatial,3421,3,1,46,1600,3.75,5,2,l,l,-1600,-400,-1600,0,=,L,S,0.360924040590111,0.411741982932339,1.19821005547798,1.91988660296377,1.67766660093748,1297004.00649028,1297004.37782919,1297004.37782919,1297007.57788298,3.2,1297008.80789528,1297008.80789528,1297012.00794137,3.2,1297014.07319037,1297014.86567789,0.79248751909472,78,Longer,Middle,66,=,Index
232,Spatial,3421,3,1,47,800,3.75,3.33333333333333,1,r,r,0,1200,0,800,L,S,=,0.370647429488653,0.377596130014556,1.27519735479469,1.87254208931357,1.95441061684688,1297016.72321629,1297017.10802816,1297017.10802816,1297020.30807649,3.2,1297021.61808787,1297021.61808787,1297024.01812267,2.4,1297026.03993347,1297026.58566605,0.545732576400042,78,Shorter,Middle,78,S,Middle
232,Spatial,3421,3,1,48,800,5,5,1,m,m,-800,-400,-800,0,=,L,S,0.205615507775886,0.373767485133147,1.67791337768534,1.94210579071536,1.67001036255008,1297028.70662834,1297028.9281932,1297028.9281932,1297029.728199,0.8,1297031.42822721,1297031.42822721,1297033.02825199,1.6,1297035.10665324,1297035.61767376,0.511020516743883,78,Longer,Middle,78,L,Middle
232,Spatial,3421,3,1,49,1200,3.33333333333333,7.5,1,l,l,-1600,-800,-1600,-400,=,L,S,0.334366572801492,0.419904628086794,1.91928699597727,1.24240871111036,1.17851963573947,1297038.02336141,1297038.36832543,1297038.36832543,1297040.76835958,2.4,1297042.72839409,1297042.72839409,1297044.32841599,1.6,1297045.70669155,1297047.44170736,1.73501581232995,78,Longer,Middle,66,=,Index
232,Spatial,3421,3,1,50,800,1.25,3.33333333333333,1,l,l,-1600,-1200,-1600,-800,=,L,S,0.269314597091577,0.32858948146237,1.7314734160191,1.34285959511043,1.38344648167198,1297048.80676271,1297049.08849868,1297049.08849868,1297052.28853066,3.2,1297054.04854823,1297054.04854823,1297056.44858623,2.4,1297057.94012869,1297059.88975153,1.94962283293717,78,Longer,Middle,77,S,Ring
232,Spatial,3421,3,1,51,400,5,5,2,m,m,-800,-400,-800,-400,=,L,S,0.211120818224807,0.438628965440293,1.07668739340245,1.81280070010186,1.20272935431386,1297061.44015138,1297061.66867164,1297061.66867164,1297062.46868384,0.8,1297063.5786924,1297063.5786924,1297064.37870333,0.8,1297066.34015391,1297066.91372315,0.573569238418713,66,Equals to,Index,66,=,Index
232,Spatial,3421,3,1,52,400,2.5,5,2,m,m,-800,-400,-800,-400,L,S,=,0.446215572014653,0.318107375004015,1.73935532333335,1.82823614638964,1.12175283747326,1297068.30686751,1297068.76877346,1297068.76877346,1297070.36879503,1.6,1297072.14883163,1297072.14883163,1297072.94882747,0.8,1297074.92355124,1297075.92172973,0.998178485315293,77,Equals to,Ring,78,S,Middle
232,Spatial,3421,3,1,53,800,5,5,1,r,r,0,1200,0,800,=,L,S,0.372150013187066,0.352303513701556,1.29545802187863,1.70240679619132,1.84844589397462,1297077.22358934,1297077.60889914,1297077.60889914,1297080.00892976,2.4,1297081.3389592,1297081.3389592,1297082.93898141,1.6,1297084.79026369,1297085.43371297,0.64344928227365,77,Shorter,Ring,77,S,Ring
232,Spatial,3421,3,1,54,400,5,5,2,r,r,0,400,0,400,=,L,S,0.233642406396042,0.333957936370463,1.75662181405596,1.79205179759515,1.07108501662414,1297087.4403006,1297087.68905252,1297087.68905252,1297088.48904805,0.8,1297090.27909912,1297090.27909912,1297091.07909529,0.8,1297093.00700536,1297093.7857202,0.778714840998873,66,Equals to,Index,77,S,Ring
232,Spatial,3421,3,1,55,400,1.66666666666667,1.25,2,l,l,-1600,-1200,-1600,-1200,L,S,=,0.2909299734548,0.43672217641001,1.00123505913188,1.6109506413691,1.11306277422713,1297095.04034312,1297095.34915525,1297095.34915525,1297097.74919069,2.4,1297098.7692059,1297098.7692059,1297101.96924749,3.2,1297103.74038409,1297104.28978412,0.549400034127757,77,Equals to,Ring,66,L,Index
232,Spatial,3421,3,1,56,1200,2.5,5,1,m,m,-800,0,-800,400,L,S,=,0.237462351185988,0.425629453348966,1.43491385791299,1.63109112581569,1.66032991122093,1297105.59042111,1297105.83931112,1297105.83931112,1297109.03935913,3.2,1297110.50937861,1297110.50937861,1297112.90940923,2.4,1297114.69043009,1297115.21772426,0.527294168481603,66,Longer,Index,66,L,Index
232,Spatial,3421,3,1,57,800,1.25,3.33333333333333,1,m,m,-800,-400,-800,0,=,L,S,0.450485489457124,0.311607542576497,1.92192927406461,1.03172981222828,1.54225908646518,1297117.05715067,1297117.51947265,1297117.51947265,1297120.7195229,3.2,1297122.67956511,1297122.67956511,1297125.07959478,2.4,1297126.25717492,1297126.79381372,0.536638797493652,78,Longer,Middle,78,L,Middle
232,Spatial,3421,3,1,58,1600,5,5,2,r,r,0,1200,0,1600,L,S,=,0.398036887031504,0.218490934519517,1.62979699931254,1.90206217829545,1.75771466217215,1297128.52387579,1297128.93964456,1297128.93964456,1297131.33969283,2.4,1297132.99970225,1297132.99970225,1297136.19974641,3.2,1297138.24058269,1297138.76977248,0.529189788503572,66,Longer,Index,66,L,Index
232,Spatial,3421,3,1,59,1600,20,20,2,r,r,0,1600,0,1600,L,S,=,0.265567030362732,0.357136750921084,1.829813450245,1.38107254938129,1.93625740834018,1297140.69061298,1297140.96981825,1297140.96981825,1297141.76983078,0.8,1297143.6398543,1297143.6398543,1297144.43986651,0.8,1297145.97396573,1297146.50574589,0.531780154444277,77,Equals to,Ring,77,=,Ring
232,Spatial,3421,3,1,60,1200,6.66666666666667,7.5,1,r,r,0,1600,0,1200,S,=,L,0.315180964005442,0.308932947280422,1.96105376231495,1.30428661556754,1.95879098408192,1297148.62398229,1297148.94993236,1297148.94993236,1297151.34996106,2.4,1297153.33000593,1297153.33000593,1297154.93001756,1.6,1297156.37403575,1297156.84980332,0.475767567288131,66,Shorter,Index,78,=,Middle
232,Spatial,3421,3,1,61,1200,3.33333333333333,7.5,1,l,l,-1600,-800,-1600,-400,=,L,S,0.42706732751716,0.434543176241946,1.26723695020486,1.05288198380762,1.20784853566378,1297158.97405279,1297159.42008878,1297159.42008878,1297161.8201178,2.4,1297163.12014903,1297163.12014903,1297164.72016675,1.6,1297165.92408506,1297167.09778531,1.17370025394484,78,Longer,Middle,78,L,Middle
232,Spatial,3421,3,1,62,800,15,5,1,l,l,-1600,-400,-1600,-800,=,L,S,0.337788999129052,0.377202893216186,1.39838416845073,1.69259295881351,1.66804997165588,1297168.47410659,1297168.83022504,1297168.83022504,1297169.63023179,0.8,1297171.05024976,1297171.05024976,1297172.65027647,1.6,1297174.47410838,1297174.85777236,0.383663984248415,77,Shorter,Ring,66,=,Index
232,Spatial,3421,3,1,63,400,5,5,2,m,m,-800,0,-800,-400,=,L,S,0.360176277239732,0.4210577694523,1.47701259061422,1.42934507761569,1.89480344502612,1297176.70748653,1297177.08034197,1297177.08034197,1297178.68036355,1.6,1297180.18040722,1297180.18040722,1297180.98039954,0.8,1297182.55750361,1297183.08980856,0.53230494982563,77,Shorter,Ring,77,S,Ring
232,Spatial,3421,3,1,64,800,3.75,3.33333333333333,1,l,l,-1600,-400,-1600,-800,=,L,S,0.401587806110898,0.274944435081735,1.20314322979108,1.27567443719127,1.04860975847867,1297185.17419942,1297185.59046231,1297185.59046231,1297188.79051161,3.2,1297190.03053102,1297190.03053102,1297192.4305594,2.4,1297193.84090555,1297194.41776557,0.576860026922077,77,Shorter,Ring,77,S,Ring
232,Spatial,3421,3,1,65,1200,10,5,1,l,l,-1600,0,-1600,-400,S,=,L,0.401365897513687,0.28030226503979,1.39961004363384,1.25518973023997,1.08934574862959,1297195.64093397,1297196.06062034,1297196.06062034,1297197.66063903,1.6,1297199.09066506,1297199.09066506,1297201.49071269,2.4,1297202.89094295,1297204.8417746,1.95083164563403,66,Shorter,Index,78,=,Middle
232,Spatial,3421,3,1,66,800,2.5,3.33333333333333,1,m,m,-800,-400,-800,0,S,=,L,0.4422986659938,0.370626234641825,1.90832263718548,1.4762503781827,1.1116346268057,1297206.1076525,1297206.56077464,1297206.56077464,1297208.16078627,1.6,1297210.1008239,1297210.1008239,1297212.50085902,2.4,1297214.12435094,1297214.66579922,0.541448280448094,77,Longer,Ring,77,L,Ring
232,Spatial,3421,3,1,67,1200,10,7.5,1,l,l,-1600,-800,-1600,-400,=,L,S,0.245211751757603,0.227010388479854,1.14913050937826,1.25581974351401,1.78095136801321,1297215.9410515,1297216.20090969,1297216.20090969,1297217.00092446,0.8,1297218.19094044,1297218.19094044,1297219.79096939,1.6,1297221.19106396,1297221.68180628,0.490742321591824,78,Longer,Middle,78,L,Middle
232,Spatial,3421,3,1,68,800,7.5,3.33333333333333,1,l,l,-1600,-400,-1600,-800,L,S,=,0.281040626036942,0.468277373457783,1.88721600626011,1.92413232762155,1.57405702798794,1297223.64110299,1297223.94103299,1297223.94103299,1297225.5410443,1.6,1297227.46107735,1297227.46107735,1297229.8611253,2.4,1297231.92443666,1297232.44975821,0.525321556022391,78,Shorter,Middle,77,=,Ring
232,Spatial,3421,3,1,69,400,10,5,2,r,r,0,800,0,400,S,=,L,0.247344821143627,0.230597571482272,1.10052591416588,1.63797431354845,1.81261554666233,1297234.19115798,1297234.45117611,1297234.45117611,1297235.2511864,0.8,1297236.39120664,1297236.39120664,1297237.19121885,0.8,1297238.9744956,1297239.4817717,0.507276096846908,66,Shorter,Index,66,S,Index
232,Spatial,3421,3,1,70,1200,10,7.5,1,l,l,-1600,-800,-1600,-400,L,S,=,0.421478058355027,0.345289620328969,1.67816404407886,1.67773315047842,1.57018871958723,1297241.45786726,1297241.89128107,1297241.89128107,1297242.69129552,0.8,1297244.4013164,1297244.4013164,1297246.00134407,1.6,1297247.84121993,1297248.36186612,0.520646185381338,66,Longer,Index,66,L,Index
232,Spatial,3421,3,1,71,1200,10,5,1,l,l,-1600,0,-1600,-400,S,=,L,0.488580000416951,0.453525651137812,1.59908106223921,1.35944766752284,1.93514246859453,1297250.10791889,1297250.61143155,1297250.61143155,1297252.21142714,1.6,1297253.84146306,1297253.84146306,1297256.24149079,2.4,1297257.75796472,1297258.81787612,1.05991140729748,66,Shorter,Index,66,S,Index
232,Spatial,3421,3,1,72,1200,10,7.5,1,m,m,-800,0,-800,400,=,L,S,0.469591585020364,0.490708566408961,1.74802962313553,1.96826484858444,1.46034390633461,1297260.92464526,1297261.41156988,1297261.41156988,1297262.21157567,0.8,1297263.99160617,1297263.99160617,1297265.5916255,1.6,1297267.70800844,1297268.21789685,0.509888405911624,78,Longer,Middle,78,L,Middle
232,Spatial,3421,3,1,73,1200,5,5,1,r,r,0,800,0,1200,S,=,L,0.273462877150385,0.352668023160223,1.97110651820607,1.4825763866752,1.75062741751507,1297270.55803741,1297270.85170499,1297270.85170499,1297272.45172817,1.6,1297274.46176162,1297274.46176162,1297276.86177845,2.4,1297278.49139384,1297279.16179336,0.670399520546198,77,Longer,Ring,77,L,Ring
232,Spatial,3421,3,1,74,1600,5,5,2,m,m,-800,800,-800,800,=,L,S,0.298725018234614,0.463212037561561,1.07101159818413,1.76319181031264,1.73305511433248,1297281.10809461,1297281.42185864,1297281.42185864,1297284.62189607,3.2,1297285.7319258,1297285.7319258,1297288.93196194,3.2,1297290.84146118,1297291.45786424,0.616403063526377,66,Equals to,Index,66,=,Index
232,Spatial,3421,3,1,75,800,3.75,3.33333333333333,1,r,r,0,1200,0,800,S,=,L,0.406001338027393,0.334302735552983,1.88198580188547,1.85761133730635,1.8062520914092,1297293.39149472,1297293.81203876,1297293.81203876,1297297.01207555,3.2,1297298.92211432,1297298.92211432,1297301.32214495,2.4,1297303.32479069,1297303.93783239,0.613041698466986,66,Shorter,Index,66,S,Index
232,Spatial,3421,3,1,76,800,15,5,1,l,l,-1600,-400,-1600,-800,S,=,L,0.306391170122171,0.44096100766488,1.93690649004888,1.72281489667332,1.54585821562195,1297305.92491185,1297306.24221681,1297306.24221681,1297307.04223544,0.8,1297309.01226294,1297309.01226294,1297310.61227553,1.6,1297312.47493151,1297313.26592735,0.790995836257935,66,Shorter,Index,77,L,Ring
232,Spatial,3421,3,1,77,800,1.66666666666667,5,1,m,m,-800,-400,-800,0,S,=,L,0.206740243610439,0.259265848982557,1.42261428072167,1.64396891347852,1.82985553028966,1297315.02495556,1297315.24234385,1297315.24234385,1297317.64237897,2.4,1297319.0924176,1297319.0924176,1297320.69241929,1.6,1297322.49163995,1297323.70586965,1.21422970318235,77,Longer,Ring,77,L,Ring
232,Spatial,3421,3,1,78,1600,5,5,2,m,m,-800,800,-800,800,=,L,S,0.355604734287166,0.244451756545634,1.1523710427823,1.93015558480534,1.49827159052697,1297325.72502131,1297326.09250711,1297326.09250711,1297329.2925548,3.2,1297330.47257169,1297330.47257169,1297333.672612,3.2,1297335.75840774,1297336.39381577,0.635408025002107,66,Equals to,Index,66,=,Index
232,Spatial,3421,3,1,79,800,5,5,1,l,l,-1600,-400,-1600,-800,L,S,=,0.409688861597329,0.45460646576148,1.0878643541893,1.17387122310562,1.22210291901188,1297338.09175876,1297338.51268511,1297338.51268511,1297340.91272376,2.4,1297342.03273878,1297342.03273878,1297343.63276517,1.6,1297344.94175516,1297346.82589233,1.8841371673625,78,Shorter,Middle,78,S,Middle
232,Spatial,3421,3,1,80,1200,10,7.5,1,m,m,-800,0,-800,400,L,S,=,0.247932732497232,0.353125974642144,1.66349513374469,1.9755515853311,1.61204075243648,1297348.24182337,1297348.50284066,1297348.50284066,1297349.30283651,0.8,1297351.00286793,1297351.00286793,1297352.60288982,1.6,1297354.72517901,1297355.28985085,0.564671837724745,66,Longer,Index,66,L,Index
232,Spatial,3421,3,1,81,800,2.5,3.33333333333333,1,l,l,-1600,-1200,-1600,-800,L,S,=,0.247085851975734,0.373234002284888,1.42656334188615,1.18566830459231,1.25559896389443,1297357.10854497,1297357.37296487,1297357.37296487,1297358.97298003,1.6,1297360.43301165,1297360.43301165,1297362.83303618,2.4,1297364.1585535,1297364.76988091,0.611327409278601,66,Longer,Index,66,L,Index
232,Spatial,3421,3,1,82,800,5,5,1,r,r,0,400,0,800,S,=,L,0.365796067366424,0.243509270219015,1.3104527340918,1.154652649749,1.0135570801409,1297366.20859367,1297366.59309642,1297366.59309642,1297367.3931112,0.8,1297368.73312111,1297368.73312111,1297370.33314493,1.6,1297371.6252649,1297372.27385854,0.648593635531142,77,Longer,Ring,77,L,Ring
232,Spatial,3421,3,1,83,1600,3.75,5,2,r,r,0,1200,0,1600,S,=,L,0.371577732997929,0.241520322434918,1.9708841487892,1.5835540730616,1.36858513420439,1297373.49191065,1297373.88319653,1297373.88319653,1297377.08323299,3.2,1297379.07327502,1297379.07327502,1297382.27332784,3.2,1297384.00867098,1297384.48186537,0.473194396356121,77,Longer,Ring,78,=,Middle
232,Spatial,3421,3,1,84,1600,10,20,2,m,m,-800,800,-800,800,=,L,S,0.262419173691058,0.237162368949345,1.08979799313955,1.60106594869012,1.05437082607609,1297386.04203695,1297386.32338168,1297386.32338168,1297387.92340198,1.6,1297389.04342117,1297389.04342117,1297389.84342953,0.8,1297391.59207279,1297392.08986246,0.497789673274383,66,Equals to,Index,66,=,Index
232,Spatial,3421,3,1,85,1200,5,5,1,m,m,-800,800,-800,400,=,L,S,0.340219495822133,0.380296541520704,1.59025932679185,1.16172120343019,1.72914099448951,1297393.34207298,1297393.69348376,1297393.69348376,1297396.89353177,3.2,1297398.51356251,1297398.51356251,1297400.91358672,2.4,1297402.22543461,1297403.45792295,1.23248833674006,77,Shorter,Ring,77,S,Ring
232,Spatial,3421,3,1,86,800,7.5,3.33333333333333,1,r,r,0,1200,0,800,L,S,=,0.474106644542113,0.495107431158839,1.13875567261839,1.60183076570236,1.91820384214798,1297405.39214443,1297405.88365945,1297405.88365945,1297407.48367814,1.6,1297408.64370681,1297408.64370681,1297411.04374161,2.4,1297412.79217524,1297413.39390046,0.601725223474205,78,Shorter,Middle,77,=,Ring
232,Spatial,3421,3,1,87,1200,2.5,5,1,r,r,0,800,0,1200,S,=,L,0.205975311957373,0.226318585335895,1.54174316244843,1.79575953848349,1.74829332045684,1297415.52550602,1297415.74380575,1297415.74380575,1297418.94385632,3.2,1297420.51387978,1297420.51387978,1297422.91390912,2.4,1297424.85892432,1297426.48989634,1.63097202009521,77,Longer,Ring,66,S,Index
232,Spatial,3421,3,1,88,800,7.5,3.33333333333333,1,m,m,-800,400,-800,0,L,S,=,0.270035463848848,0.454842541018957,1.91477172637727,1.95434613581259,1.02633223080277,1297428.42561303,1297428.71400515,1297428.71400515,1297430.31401775,1.6,1297432.25404928,1297432.25404928,1297434.65408119,2.4,1297436.75898899,1297439.01789114,2.25890214671381,78,Shorter,Middle,78,S,Middle
232,Spatial,3421,3,1,89,800,5,5,1,r,r,0,400,0,800,L,S,=,0.214100621719526,0.484729149282032,1.74946339453522,1.77967829540925,1.77416487201615,1297440.20901108,1297440.4341598,1297440.4341598,1297441.23417041,0.8,1297443.00421305,1297443.00421305,1297444.60422597,1.6,1297446.54237102,NaN,NaN,66,Longer,Index,999,Missed,Missed
232,Spatial,3421,3,1,90,800,5,5,1,l,l,-1600,-400,-1600,-800,S,=,L,0.403445237188798,0.470020238228118,1.93279065742959,1.43572102194883,1.83318616449151,1297451.40906478,1297451.82432901,1297451.82432901,1297454.22436541,2.4,1297456.19439676,1297456.19439676,1297457.79441673,1.6,1297459.37579407,1297460.05791281,0.682118744123727,66,Shorter,Index,78,=,Middle
232,Spatial,3421,3,1,91,1200,5,5,1,l,l,-1600,-800,-1600,-400,L,S,=,0.417652860794751,0.44085362212296,1.89648202639749,1.09575977862582,1.54601211250225,1297462.07581306,1297462.50447932,1297462.50447932,1297464.10450474,1.6,1297466.03454169,1297466.03454169,1297468.43456589,2.4,1297469.67583017,1297470.16988527,0.494055103743449,66,Longer,Index,66,L,Index
232,Spatial,3421,3,1,92,1200,6.66666666666667,7.5,1,l,l,-1600,0,-1600,-400,S,=,L,0.252173400955138,0.221278172860063,1.00129527077581,1.08477366042852,1.16017871510584,1297471.90922247,1297472.17462444,1297472.17462444,1297474.5746618,2.4,1297475.6046838,1297475.6046838,1297477.20469799,1.6,1297478.44256262,1297478.91392686,0.471364236902446,66,Shorter,Index,66,S,Index
232,Spatial,3421,3,1,93,1200,5,5,1,r,r,0,800,0,1200,L,S,=,0.314245325507486,0.202971060052669,1.96107808109743,1.57772524957465,1.87966956400008,1297480.25925978,1297480.58474305,1297480.58474305,1297482.18476848,1.6,1297484.16480148,1297484.16480148,1297486.56483274,2.4,1297488.29260728,1297488.77796192,0.485354638425633,66,Longer,Index,77,=,Ring
232,Spatial,3421,3,1,94,400,3.33333333333333,1.25,2,r,r,0,800,0,400,L,S,=,0.262490871497592,0.476505027183057,1.77449217358191,1.69718149512287,1.77049029118699,1297490.85929425,1297491.13490753,1297491.13490753,1297493.53493655,2.4,1297495.34496012,1297495.34496012,1297498.54500589,3.2,1297500.39267403,1297500.87394336,0.481269324431196,78,Shorter,Middle,77,=,Ring
232,Spatial,3421,3,1,95,800,1.25,3.33333333333333,1,m,m,-800,-400,-800,0,S,=,L,0.404654801275344,0.323301885041055,1.21353124855621,1.24040071967273,1.94047390394893,1297502.84271239,1297503.26508103,1297503.26508103,1297506.46512102,3.2,1297507.70514363,1297507.70514363,1297510.10519062,2.4,1297511.49275234,1297512.04991104,0.557158698327839,77,Longer,Ring,77,L,Ring
232,Spatial,3421,3,1,96,1200,20,7.5,1,r,r,0,1600,0,1200,S,=,L,0.38432994818073,0.279096231854103,1.79911716278855,1.47301763512785,1.5571779429669,1297514.15941595,1297514.55524112,1297514.55524112,1297515.35525494,0.8,1297517.19527704,1297517.19527704,1297518.79530119,1.6,1297520.4094353,1297521.56993327,1.16049796203151,66,Shorter,Index,66,S,Index
