Subject,Task,SequenceOrder,ListNo,RunNo,TrialNo,Aud_Probe_Dist,Aud_Standard_Vel,Aud_Probe_Vel,Main_Control,Aud_Std_StartCode,Aud_Probe_StartCode,Aud_Std_StartPt,Aud_Std_EndPt,Aud_Probe_StartPt,Aud_Probe_EndPt,RespIndex,RespMiddle,RespRing,ISI_Cross_Std,ISI_Cross_Probe,ISI_Std_Probe,ISI_Probe_Response,ITI,TrialOnset,StdOnset,StdOnsetByStop,StdOffset,StdDur,ProbeOnset,ProbeOnsetByStop,ProbeOffset,ProbeDur,RespWinStart,RespTime,RT,CorrectKC,CorrectResponse,CorrectFinger,SubjRespKC,SubjResponse,SubjRespFinger
229,Temporal,4132,4,1,1,800,2.5,3.33333333333333,1,r,r,0,400,0,800,S,=,L,0.256353462879145,0.249739035874919,1.61725305005543,1.64337514983569,1.2682321815491,1210602.4779872,1210602.74631859,1210602.74631859,1210604.34438263,1.6,1210605.99440292,1210605.99440292,1210608.3944406,2.4,1210610.19470763,1210610.67213955,0.477431922685355,77,Longer,Ring,77,L,Ring
229,Temporal,4132,4,1,2,800,2.5,3.33333333333333,1,m,m,-800,-400,-800,0,=,L,S,0.419750450630449,0.42894852678255,1.60771798534193,1.00938908793739,1.71580110019931,1210612.12807526,1210612.56450332,1210612.56450332,1210614.1645156,1.6,1210615.80454579,1210615.80454579,1210618.20458283,2.4,1210619.34476255,1210619.77613014,0.431367586134002,78,Longer,Middle,78,L,Middle
229,Temporal,4132,4,1,3,400,2.5,5,2,r,r,0,400,0,400,=,L,S,0.322848554857697,0.401488774669495,1.45355308859927,1.08944645747105,1.25866858186213,1210621.64475295,1210621.98465053,1210621.98465053,1210623.58466088,1.6,1210625.06470479,1210625.06470479,1210625.86469101,0.8,1210627.09479287,1210627.48812358,0.393330715363845,77,Shorter,Ring,77,S,Ring
229,Temporal,4132,4,1,4,400,1.25,1.25,2,r,r,0,400,0,400,=,L,S,0.316011559228079,0.297954839393702,1.36423755067951,1.43560216304688,1.61659542038069,1210628.92815058,1210629.25473644,1210629.25473644,1210632.45479022,3.2,1210633.85481516,1210633.85481516,1210637.05485515,3.2,1210638.64488228,1210639.09613671,0.451254432555288,66,Equals to,Index,66,=,Index
229,Temporal,4132,4,1,5,800,3.75,3.33333333333333,1,r,r,0,1200,0,800,=,L,S,0.360043996584505,0.397144797643452,1.41352721665765,1.23042099692184,1.18355872569872,1210640.89494073,1210641.27494313,1210641.27494313,1210644.47496451,3.2,1210645.92498679,1210645.92498679,1210648.32501901,2.4,1210649.71163602,1210650.27219197,0.560555946314707,77,Shorter,Ring,77,S,Ring
229,Temporal,4132,4,1,6,1200,5,5,1,l,l,-1600,-800,-1600,-400,L,S,=,0.469671666248035,0.226430895054137,1.74925082781464,1.50945070046807,1.90601452001375,1210651.62832517,1210652.11508163,1210652.11508163,1210653.71509295,1.6,1210655.49514141,1210655.49514141,1210657.89516337,2.4,1210659.54501945,1210659.95213439,0.40711494279094,66,Longer,Index,66,L,Index
229,Temporal,4132,4,1,7,400,1.25,1.25,2,r,r,0,400,0,400,S,=,L,0.394712458778458,0.39014607266808,1.36261993397817,1.48483580712723,1.12748168125705,1210662.04505083,1210662.45522656,1210662.45522656,1210665.65527842,3.2,1210667.05530272,1210667.05530272,1210670.25534367,3.2,1210671.89510379,1210672.27213872,0.377034928184003,78,Equals to,Middle,78,=,Middle
229,Temporal,4132,4,1,8,800,15,5,1,l,l,-1600,-400,-1600,-800,L,S,=,0.263236200397818,0.462254892445559,1.72417424657103,1.95219854120177,1.80588519453258,1210673.57844689,1210673.85539453,1210673.85539453,1210674.65540931,0.8,1210676.41545223,1210676.41545223,1210678.01545038,1.6,1210680.11181752,1210682.51215519,2.40033767628483,66,Longer,Index,78,S,Middle
229,Temporal,4132,4,1,9,400,2.5,5,2,r,r,0,400,0,400,S,=,L,0.320442601171093,0.311452368636314,1.48416225897094,1.56200464584834,1.59436398345238,1210684.49517751,1210684.83556415,1210684.83556415,1210686.43558765,1.6,1210687.9456025,1210687.9456025,1210688.74561727,0.8,1210690.46187042,1210692.30414804,1.84227761835791,66,Shorter,Index,78,=,Middle
229,Temporal,4132,4,1,10,1200,2.5,5,1,l,l,-1600,-800,-1600,-400,L,S,=,0.293508469203633,0.312991464057488,1.82976098809498,1.97429815254445,1.22049604219665,1210694.0785128,1210694.38569943,1210694.38569943,1210697.58573236,3.2,1210699.43576863,1210699.43576863,1210701.83580053,2.4,1210703.94527693,1210704.41619364,0.470916717778891,78,Shorter,Middle,77,=,Ring
229,Temporal,4132,4,1,11,1200,5,5,1,r,r,0,1600,0,1200,L,S,=,0.323290222266312,0.333630273074908,1.50500304065118,1.01989556802388,1.10968916815779,1210705.82822295,1210706.16587039,1210706.16587039,1210709.36591006,3.2,1210710.89594777,1210710.89594777,1210713.29597487,2.4,1210714.46202633,1210714.84019337,0.378167039016262,78,Shorter,Middle,77,=,Ring
229,Temporal,4132,4,1,12,400,5,5,2,r,r,0,400,0,400,S,=,L,0.290357310503329,0.451807127396266,1.34649870627267,1.0314614822833,1.20379997609967,1210716.112039,1210716.41602133,1210716.41602133,1210717.21601942,0.8,1210718.58604936,1210718.58604936,1210719.38605676,0.8,1210720.56203961,1210720.93613856,0.374098946806043,78,Equals to,Middle,78,=,Middle
229,Temporal,4132,4,1,13,800,7.5,3.33333333333333,1,l,l,-1600,-400,-1600,-800,S,=,L,0.479830408033735,0.290042839256831,1.23687763992017,1.6135350738851,1.10833643825834,1210722.32873225,1210722.82610914,1210722.82610914,1210724.42613168,1.6,1210725.69615604,1210725.69615604,1210728.09619885,2.4,1210729.86211171,1210730.27222052,0.410108810756356,77,Longer,Ring,77,L,Ring
229,Temporal,4132,4,1,14,400,5,5,2,m,m,-800,0,-800,-400,=,L,S,0.362522063099952,0.477367738557644,1.21327474902707,1.35402175132737,1.97187554392414,1210731.54547265,1210731.92625043,1210731.92625043,1210733.52626751,1.6,1210734.77629017,1210734.77629017,1210735.57629917,0.8,1210737.07881564,1210737.52019,0.441374367801473,77,Shorter,Ring,77,S,Ring
229,Temporal,4132,4,1,15,800,1.25,3.33333333333333,1,m,m,-800,-400,-800,0,L,S,=,0.346379517008374,0.432087279684043,1.00581565256723,1.60905354763658,1.82938758566265,1210739.67885439,1210740.03636577,1210740.03636577,1210743.23641506,3.2,1210744.26642711,1210744.26642711,1210746.66645581,2.4,1210748.4122327,1210748.79222735,0.379994648974389,78,Shorter,Middle,78,S,Middle
229,Temporal,4132,4,1,16,1200,5,5,1,m,m,-800,0,-800,400,=,L,S,0.260022651359844,0.394407880331421,1.31854472829168,1.87935811816675,1.94659844415928,1210750.79559751,1210751.0665247,1210751.0665247,1210752.66653858,1.6,1210754.01657484,1210754.01657484,1210756.41659744,2.4,1210758.44561152,1210758.84817011,0.402558589586988,78,Longer,Middle,78,L,Middle
229,Temporal,4132,4,1,17,800,1.25,3.33333333333333,1,m,m,-800,-400,-800,0,L,S,=,0.26065078192526,0.36439112957788,1.49239909383029,1.84161173816821,1.68611755877634,1210760.9789754,1210761.25668756,1210761.25668756,1210764.45674166,3.2,1210765.98674569,1210765.98674569,1210768.38677664,2.4,1210770.36235887,1210771.72019443,1.3578355605714,78,Shorter,Middle,78,S,Middle
229,Temporal,4132,4,1,18,1200,6.66666666666667,7.5,1,r,r,0,1600,0,1200,L,S,=,0.498305080915059,0.375383775565188,1.50778510481968,1.36583647347443,1.28574473916148,1210773.57905894,1210774.09689536,1210774.09689536,1210776.49689807,2.4,1210778.0369246,1210778.0369246,1210779.63693271,1.6,1210781.14574652,1210781.62431437,0.478567849379033,78,Shorter,Middle,77,=,Ring
229,Temporal,4132,4,1,19,1600,5,5,2,l,l,-1600,-400,-1600,0,S,=,L,0.449395509291068,0.47580879284908,1.4490222165595,1.96648261267473,1.30399407124539,1210783.07909698,1210783.54700677,1210783.54700677,1210785.94704446,2.4,1210787.42707008,1210787.42707008,1210790.62710269,3.2,1210792.74580591,1210793.21623124,0.470425329869613,77,Longer,Ring,78,=,Middle
229,Temporal,4132,4,1,20,800,15,5,1,r,r,0,1200,0,800,=,L,S,0.490914734815752,0.209150323350503,1.55298027577446,1.31201225562242,1.10072752166769,1210794.69584141,1210795.19716785,1210795.19716785,1210795.9971868,0.8,1210797.57721543,1210797.57721543,1210799.17722867,1.6,1210800.64585174,1210801.72019443,1.07434269227088,78,Longer,Middle,78,L,Middle
229,Temporal,4132,4,1,21,1200,3.33333333333333,7.5,1,r,r,0,800,0,1200,=,L,S,0.452138081372864,0.480547281793432,1.4794906244361,1.88306370689608,1.06787457755937,1210802.99588864,1210803.46729867,1210803.46729867,1210805.86732127,2.4,1210807.37735601,1210807.37735601,1210808.9773747,1.6,1210811.01258714,1210811.45624162,0.443654484581202,77,Shorter,Ring,77,S,Ring
229,Temporal,4132,4,1,22,400,2.5,1.25,2,r,r,0,800,0,400,S,=,L,0.278715441839604,0.328882170090383,1.29358899015982,1.23195730235716,1.13358501430995,1210812.71259559,1210813.0074323,1210813.0074323,1210816.20747325,3.2,1210817.53750173,1210817.53750173,1210820.73754332,3.2,1210822.11265834,1210822.47223137,0.359573025023565,78,Equals to,Middle,78,=,Middle
229,Temporal,4132,4,1,23,1600,7.5,20,2,r,r,0,1200,0,1600,S,=,L,0.466177285632857,0.443654321670819,1.78132935885983,1.90306939756676,1.03848202955774,1210823.77934875,1210824.25759639,1210824.25759639,1210825.85762182,1.6,1210827.67764672,1210827.67764672,1210828.47765668,0.8,1210830.52936785,1210830.984213,0.454845157451928,66,Shorter,Index,66,S,Index
229,Temporal,4132,4,1,24,1200,20,7.5,1,l,l,-1600,0,-1600,-400,=,L,S,0.286041850828772,0.206341606856689,1.97304196757298,1.34890052288359,1.50395836062578,1210832.19607927,1210832.49771584,1210832.49771584,1210833.29773062,0.8,1210835.29775922,1210835.29775922,1210836.89778496,1.6,1210838.39610469,1210839.97626738,1.58016268536448,78,Longer,Middle,77,S,Ring
229,Temporal,4132,4,1,25,1200,20,7.5,1,l,l,-1600,0,-1600,-400,S,=,L,0.300988641904003,0.356869546101906,1.41479335677781,1.56464144604885,1.78532009681264,1210842.52947938,1210842.84787397,1210842.84787397,1210843.64787655,0.8,1210845.08789526,1210845.08789526,1210846.6879178,1.6,1210848.39614479,1210850.3762541,1.98010930372402,77,Longer,Ring,78,=,Middle
229,Temporal,4132,4,1,26,1200,3.33333333333333,7.5,1,l,l,-1600,-800,-1600,-400,=,L,S,0.20887392130993,0.307755438165602,1.94161517826492,1.78706371571434,1.24068353962133,1210852.32950231,1210852.55801959,1210852.55801959,1210854.95804476,2.4,1210856.93807648,1210856.93807648,1210858.53810222,1.6,1210860.4628787,1210860.91221506,0.4493363564834,77,Shorter,Ring,77,S,Ring
229,Temporal,4132,4,1,27,1200,2.5,5,1,l,l,-1600,-800,-1600,-400,L,S,=,0.346408192253162,0.388787896561834,1.15151708660142,1.5066795501123,1.74764166413164,1210862.34625955,1210862.70816366,1210862.70816366,1210865.90820847,3.2,1210867.09823663,1210867.09823663,1210869.49826277,2.4,1210871.14626237,1210871.51223956,0.365977198584005,78,Shorter,Middle,78,S,Middle
229,Temporal,4132,4,1,28,800,15,5,1,m,m,-800,400,-800,0,=,L,S,0.435105809187155,0.465826583526955,1.58428569878947,1.35842716205677,1.51063026654985,1210873.4463188,1210873.89832492,1210873.89832492,1210874.69833103,0.8,1210876.30835659,1210876.30835659,1210877.90838298,1.6,1210879.41300166,1210880.42425444,1.01125277741812,78,Longer,Middle,78,L,Middle
229,Temporal,4132,4,1,29,1200,6.66666666666667,7.5,1,m,m,-800,800,-800,400,=,L,S,0.384644380284867,0.309767307031021,1.18690510154965,1.38863717720528,1.9893349598463,1210882.11303171,1210882.50844507,1210882.50844507,1210884.908485,2.4,1210886.1285056,1210886.1285056,1210887.72852269,1.6,1210889.26306191,1210889.62423834,0.361176428152248,77,Shorter,Ring,77,S,Ring
229,Temporal,4132,4,1,30,800,15,5,1,m,m,-800,400,-800,0,=,L,S,0.260441228643135,0.229406113190815,1.60356034229194,1.59983568503266,1.29928237865645,1210891.77971382,1210892.05859607,1210892.05859607,1210892.85859866,0.8,1210894.49862917,1210894.49862917,1210896.09864016,1.6,1210897.84645469,1210899.40027512,1.55382043169811,78,Longer,Middle,78,L,Middle
229,Temporal,4132,4,1,31,1600,5,5,2,m,m,-800,400,-800,800,=,L,S,0.495247463127097,0.200045280456734,1.77859094645862,1.6375564406655,1.79774409274293,1210900.89646962,1210901.40872019,1210901.40872019,1210903.80876076,2.4,1210905.61878497,1210905.61878497,1210908.81883972,3.2,1210910.59652301,NaN,NaN,78,Longer,Middle,999,Missed,Missed
229,Temporal,4132,4,1,32,400,5,5,2,l,l,-1600,-800,-1600,-1200,S,=,L,0.216543647813776,0.297074830833805,1.02742690984116,1.96588793300052,1.23752825501308,1210915.56323588,1210915.79893816,1210915.79893816,1210917.39897161,1.6,1210918.45898123,1210918.45898123,1210919.25899119,0.8,1210921.37990835,1210921.89639277,0.51648441888392,66,Shorter,Index,66,S,Index
229,Temporal,4132,4,1,33,400,1.66666666666667,1.25,2,l,l,-1600,-1200,-1600,-1200,=,L,S,0.331730647450548,0.433205217328707,1.66007758426546,1.34782614731103,1.2214228045341,1210923.32995766,1210923.67905343,1210923.67905343,1210926.07909625,2.4,1210927.76911062,1210927.76911062,1210930.96915607,3.2,1210932.46331967,1210933.30430202,0.840982347726822,78,Longer,Middle,78,L,Middle
229,Temporal,4132,4,1,34,1200,6.66666666666667,7.5,1,r,r,0,1600,0,1200,S,=,L,0.490367554396726,0.346752839565288,1.19718305662365,1.61185628614458,1.98625093662135,1210934.71334515,1210935.21922204,1210935.21922204,1210937.61925587,2.4,1210938.83927647,1210938.83927647,1210940.43929195,1.6,1210942.19671524,1210943.16031222,0.963596974965185,66,Shorter,Index,78,=,Middle
229,Temporal,4132,4,1,35,1200,5,5,1,m,m,-800,800,-800,400,=,L,S,0.466452344265668,0.423200172997544,1.87515789554469,1.45663209253149,1.14149522015035,1210945.34673613,1210945.82937972,1210945.82937972,1210949.02942003,3.2,1210950.93944598,1210950.93944598,1210953.33949489,2.4,1210954.930094,1210955.39236927,0.462275270139799,77,Shorter,Ring,77,S,Ring
229,Temporal,4132,4,1,36,1600,20,20,2,m,m,-800,800,-800,800,L,S,=,0.31653526166101,0.206294521746346,1.80275537937403,1.45056077578573,1.89198577024695,1210956.69682193,1210957.02953813,1210957.02953813,1210957.82955708,0.8,1210959.66958271,1210959.66958271,1210960.46958562,0.8,1210962.06349252,1210962.46428413,0.400791611289606,77,Equals to,Ring,77,=,Ring
229,Temporal,4132,4,1,37,1200,5,5,1,m,m,-800,800,-800,400,S,=,L,0.232924589203578,0.212160408002919,1.25324616719319,1.23387542824646,1.80134166635384,1210964.54687337,1210964.79966254,1210964.79966254,1210967.99968905,3.2,1210969.27972147,1210969.27972147,1210971.67974953,2.4,1210973.06355885,1210975.30427732,2.24071847274899,66,Shorter,Index,78,=,Middle
229,Temporal,4132,4,1,38,1600,20,20,2,r,r,0,1600,0,1600,S,=,L,0.498009730796397,0.253470049000072,1.97120385808934,1.3980940788138,1.96640445005009,1210977.29694671,1210977.80985089,1210977.80985089,1210978.60984963,0.8,1210980.61987955,1210980.61987955,1210981.41989882,0.8,1210982.96364312,1210983.45645367,0.492810550378636,78,Equals to,Middle,78,=,Middle
229,Temporal,4132,4,1,39,1200,10,5,1,r,r,0,1600,0,1200,L,S,=,0.408835688609577,0.43882635696705,1.83583195399175,1.8683673776304,1.1307350262178,1210985.61366061,1210986.03995907,1210986.03995907,1210987.63998803,1.6,1210989.51001059,1210989.51001059,1210991.91009767,2.4,1210993.93035757,1210994.42429935,0.493941779714078,66,Longer,Index,66,L,Index
229,Temporal,4132,4,1,40,800,3.75,3.33333333333333,1,m,m,-800,400,-800,0,L,S,=,0.296125753171297,0.314331646738828,1.3462844109848,1.31179045882538,1.95618410394603,1210995.74705501,1210996.06010962,1210996.06010962,1210999.26014672,3.2,1211000.64018954,1211000.64018954,1211003.04020893,2.4,1211004.53042895,1211005.26431756,0.733888608403504,78,Shorter,Middle,78,S,Middle
229,Temporal,4132,4,1,41,400,3.33333333333333,1.25,2,l,l,-1600,-800,-1600,-1200,=,L,S,0.25115565654226,0.278414808859817,1.12628627255189,1.92086385091791,1.43265502677127,1211007.41378506,1211007.68028018,1211007.68028018,1211010.08031273,2.4,1211011.24032697,1211011.24032697,1211014.44037338,3.2,1211016.51382346,1211019.08030255,2.56647909246385,78,Longer,Middle,66,=,Index
229,Temporal,4132,4,1,42,800,1.66666666666667,5,1,r,r,0,400,0,800,L,S,=,0.315137619783565,0.29437873589555,1.28040791181333,1.97477059678594,1.26965303910136,1211020.71386701,1211021.04047524,1211021.04047524,1211023.44051325,2.4,1211024.7605282,1211024.7605282,1211026.36054432,1.6,1211028.48056131,1211029.39232276,0.911761441268027,78,Shorter,Middle,78,S,Middle
229,Temporal,4132,4,1,43,400,5,5,2,l,l,-1600,-1200,-1600,-1200,S,=,L,0.396112240331761,0.345982383104753,1.28849432936011,1.84824504300279,1.494344620945,1211030.81393327,1211031.2206172,1211031.2206172,1211032.02064417,0.8,1211033.33065716,1211033.33065716,1211034.13065974,0.8,1211036.13061556,1211036.58434562,0.45373006304726,78,Equals to,Middle,78,=,Middle
229,Temporal,4132,4,1,44,1600,6.66666666666667,5,2,l,l,-1600,0,-1600,0,=,L,S,0.292300989404083,0.264493521974447,1.71573814474449,1.04487536725467,1.30954099769348,1211038.28064267,1211038.59072794,1211038.59072794,1211040.99077172,2.4,1211042.74078828,1211042.74078828,1211045.94085554,3.2,1211047.14735419,1211048.19236164,1.04500744934194,78,Longer,Middle,78,L,Middle
229,Temporal,4132,4,1,45,800,1.66666666666667,5,1,m,m,-800,-400,-800,0,S,=,L,0.457681003725367,0.253013728897536,1.8621041174538,1.1903313253825,1.87440077171115,1211049.68067642,1211050.15091427,1211050.15091427,1211052.55092886,2.4,1211054.44096241,1211054.44096241,1211056.04098912,1.6,1211057.38073567,1211057.88830824,0.507572568720207,66,Shorter,Index,66,S,Index
229,Temporal,4132,4,1,46,800,7.5,3.33333333333333,1,l,l,-1600,-400,-1600,-800,L,S,=,0.480390374289677,0.301119978243135,1.03701561056559,1.28219902372253,1.25441188704654,1211059.94746159,1211060.44105865,1211060.44105865,1211062.04107093,1.6,1211063.12109122,1211063.12109122,1211065.52112794,2.4,1211066.9474763,1211067.66433764,0.716861344873905,66,Longer,Index,66,L,Index
229,Temporal,4132,4,1,47,1200,20,7.5,1,l,l,-1600,0,-1600,-400,L,S,=,0.401476927635161,0.476711589946825,1.79609292764905,1.92647869908633,1.46714420236515,1211069.09749479,1211069.51118408,1211069.51118408,1211070.31119084,0.8,1211072.14122124,1211072.14122124,1211073.74124698,1.6,1211075.83084864,1211076.36038209,0.529533448629081,66,Longer,Index,66,L,Index
229,Temporal,4132,4,1,48,1600,10,20,2,r,r,0,1600,0,1600,=,L,S,0.493944375593193,0.394250749386136,1.24522204557309,1.77241881715401,1.34795540023593,1211077.9975449,1211078.51131689,1211078.51131689,1211080.11133558,1.6,1211081.39135293,1211081.39135293,1211082.19136449,0.8,1211084.11423637,1211084.60040338,0.486167010851204,77,Shorter,Ring,77,S,Ring
229,Temporal,4132,4,1,49,1200,10,5,1,r,r,0,1600,0,1200,L,S,=,0.455150479819887,0.231702743019286,1.4053585734642,1.17752954574713,1.27459544726612,1211096.7809858,1211097.25159194,1211097.25159194,1211098.85159908,1.6,1211100.28163313,1211100.28163313,1211102.68166632,2.4,1211104.01434788,1211104.45637379,0.442025916883722,66,Longer,Index,66,L,Index
229,Temporal,4132,4,1,50,800,7.5,3.33333333333333,1,m,m,-800,400,-800,0,=,L,S,0.316215077553846,0.393703751528817,1.65199756406053,1.89341983384458,1.27245375822866,1211105.91438761,1211106.2417154,1211106.2417154,1211107.84174051,1.6,1211109.53176931,1211109.53176931,1211111.93180443,2.4,1211113.98108701,1211114.57639775,0.595310737146065,78,Longer,Middle,66,=,Index
229,Temporal,4132,4,1,51,800,1.25,3.33333333333333,1,m,m,-800,-400,-800,0,S,=,L,0.488659356955017,0.493553668462307,1.00717126680147,1.36102175660155,1.04950419005159,1211116.03111624,1211116.53187614,1211116.53187614,1211119.73191806,3.2,1211120.77193111,1211120.77193111,1211123.17196013,2.4,1211124.68114094,1211125.07235532,0.391214383766055,66,Shorter,Index,78,=,Middle
229,Temporal,4132,4,1,52,1600,5,5,2,r,r,0,1600,0,1600,S,=,L,0.296297489037077,0.330618809845616,1.9784944510389,1.50924044299166,1.07744702050038,1211126.31450578,1211126.62201609,1211126.62201609,1211129.82205737,3.2,1211131.82209334,1211131.82209334,1211135.02213654,3.2,1211136.66456766,1211137.10436015,0.439792492194101,78,Equals to,Middle,78,=,Middle
229,Temporal,4132,4,1,53,400,10,5,2,l,l,-1600,-800,-1600,-1200,S,=,L,0.391504895290809,0.449230155791976,1.72990860391932,1.86819572950113,1.59403982221504,1211138.3479098,1211138.75218991,1211138.75218991,1211139.55220661,0.8,1211141.31223445,1211141.31223445,1211142.11224089,0.8,1211144.13124084,1211144.54439517,0.413154325447977,78,Equals to,Middle,78,=,Middle
229,Temporal,4132,4,1,54,1200,10,7.5,1,r,r,0,800,0,1200,L,S,=,0.237152306537502,0.263613893315094,1.88934700804589,1.40850587214101,1.57636233913621,1211146.31462351,1211146.56230423,1211146.56230423,1211147.36231644,0.8,1211149.28235911,1211149.28235911,1211150.882364,1.6,1211152.43131048,1211153.08035132,0.649040833581239,66,Longer,Index,66,L,Index
229,Temporal,4132,4,1,55,800,5,5,1,l,l,-1600,-400,-1600,-800,=,L,S,0.402776619967628,0.472159052737993,1.66286018516078,1.22829583330531,1.26209761657609,1211154.84800293,1211155.26243409,1211155.26243409,1211157.66246664,2.4,1211159.36249934,1211159.36249934,1211160.96250808,1.6,1211162.34803159,1211162.82440124,0.476369651732966,77,Shorter,Ring,77,S,Ring
229,Temporal,4132,4,1,56,800,2.5,3.33333333333333,1,r,r,0,400,0,800,S,=,L,0.316117242036427,0.460989456972793,1.28144583018532,1.16509238710707,1.63961599179269,1211164.26473748,1211164.59257127,1211164.59257127,1211166.19259477,1.6,1211167.51261839,1211167.51261839,1211169.91265126,2.4,1211171.23143818,1211171.75242703,0.520988849457353,77,Longer,Ring,78,=,Middle
229,Temporal,4132,4,1,57,800,5,5,1,m,m,-800,-400,-800,0,S,=,L,0.471272924445888,0.383836035778851,1.31245345604187,1.41223300228664,1.22492891815886,1211173.5647669,1211174.05270935,1211174.05270935,1211174.85271579,0.8,1211176.19273725,1211176.19273725,1211177.7927646,1.6,1211179.36480729,1211181.19241681,1.82760951993987,77,Longer,Ring,78,=,Middle
229,Temporal,4132,4,1,58,1200,2.5,5,1,m,m,-800,0,-800,400,L,S,=,0.459109684156414,0.264309957961869,1.15039438426176,1.11359006602418,1.31350886653872,1211182.5981645,1211183.0728445,1211183.0728445,1211186.27288,3.2,1211187.44289974,1211187.44289974,1211189.84293966,2.4,1211191.11488819,1211191.68841352,0.573525336105376,78,Shorter,Middle,77,=,Ring
229,Temporal,4132,4,1,59,1600,7.5,20,2,m,m,-800,400,-800,800,S,=,L,0.335484786019454,0.365702183707482,1.64148260775363,1.00946444256114,1.3139059551805,1211193.16490458,1211193.51299437,1211193.51299437,1211195.11301691,1.6,1211196.79305979,1211196.79305979,1211197.59305628,0.8,1211198.74824932,1211199.92839407,1.18014475121163,66,Shorter,Index,66,S,Index
229,Temporal,4132,4,1,60,1600,15,20,2,m,m,-800,400,-800,800,L,S,=,0.487085251661046,0.435310117318807,1.92170089459206,1.26080167891261,1.83232807874969,1211201.43160745,1211201.93312554,1211201.93312554,1211202.73313422,0.8,1211204.68315232,1211204.68315232,1211205.48317159,0.8,1211206.89831048,1211207.49641247,0.598101989598945,77,Equals to,Ring,77,=,Ring
229,Temporal,4132,4,1,61,1600,3.75,5,2,l,l,-1600,-400,-1600,0,=,L,S,0.291124088286526,0.298103177529582,1.98755950762168,1.59866804012942,1.70227059534049,1211209.53166093,1211209.83322678,1211209.83322678,1211213.03327672,3.2,1211215.05331342,1211215.05331342,1211218.25335983,3.2,1211219.99838948,1211220.45640652,0.458017037017271,66,Equals to,Index,66,=,Index
229,Temporal,4132,4,1,62,1600,15,20,2,r,r,0,1200,0,1600,L,S,=,0.280974767317184,0.310597216503316,1.91073700025781,1.48867616210048,1.51100066269439,1211222.33174769,1211222.62342217,1211222.62342217,1211223.42342347,0.8,1211225.35345625,1211225.35345625,1211226.15346493,0.8,1211227.7817477,1211228.26439102,0.482643319759518,77,Equals to,Ring,77,=,Ring
229,Temporal,4132,4,1,63,1200,10,7.5,1,l,l,-1600,-800,-1600,-400,=,L,S,0.413306880235387,0.339109259467011,1.81768404552394,1.63453471943173,1.93262799931594,1211229.94845873,1211230.37352723,1211230.37352723,1211231.17354073,0.8,1211233.01357438,1211233.01357438,1211234.61359146,1.6,1211236.39847406,1211237.68841128,1.28993722307496,78,Longer,Middle,78,L,Middle
229,Temporal,4132,4,1,64,1200,10,7.5,1,r,r,0,800,0,1200,=,L,S,0.478450668612031,0.452020190647939,1.90161607183024,1.26352156911499,1.03398162938286,1211239.78181905,1211240.27367628,1211240.27367628,1211241.07367598,0.8,1211242.99371448,1211242.99371448,1211244.59374632,1.6,1211246.01520891,1211246.9844504,0.969241488957778,78,Longer,Middle,78,L,Middle
229,Temporal,4132,4,1,65,800,1.66666666666667,5,1,l,l,-1600,-1200,-1600,-800,=,L,S,0.493258668705856,0.446690305679893,1.3537976470517,1.58730549203903,1.69160356314979,1211248.19855875,1211248.70380204,1211248.70380204,1211251.10382977,2.4,1211252.48385527,1211252.48385527,1211254.08387363,1.6,1211255.81526444,1211257.01643341,1.20116897276603,77,Shorter,Ring,77,S,Ring
229,Temporal,4132,4,1,66,1200,3.33333333333333,7.5,1,m,m,-800,0,-800,400,L,S,=,0.243373157927682,0.220980657741658,1.33339989437568,1.46482350995359,1.47300054467141,1211258.88195997,1211259.14395126,1211259.14395126,1211261.54398766,2.4,1211262.91402369,1211262.91402369,1211264.51402731,1.6,1211266.13199134,1211267.08845606,0.956464722752571,78,Shorter,Middle,78,S,Middle
229,Temporal,4132,4,1,67,800,1.66666666666667,5,1,m,m,-800,-400,-800,0,S,=,L,0.477202073201552,0.257613110881626,1.44162372028098,1.76937362246619,1.95729107549963,1211268.73190884,1211269.22410721,1211269.22410721,1211271.62413783,2.4,1211273.0841547,1211273.0841547,1211274.68417147,1.6,1211276.59864089,1211277.98442473,1.38578384462744,66,Shorter,Index,66,S,Index
229,Temporal,4132,4,1,68,1200,5,5,1,m,m,-800,0,-800,400,=,L,S,0.217288944598267,0.244786663858166,1.69681503222204,1.61976965134914,1.86712595492302,1211280.11537714,1211280.34425596,1211280.34425596,1211281.94429294,1.6,1211283.67430813,1211283.67430813,1211286.07434228,2.4,1211287.83212386,1211288.3524541,0.520330242812634,78,Longer,Middle,78,L,Middle
229,Temporal,4132,4,1,69,800,5,5,1,l,l,-1600,-1200,-1600,-800,S,=,L,0.352342311230494,0.481180744387574,1.40790723604362,1.86345245200768,1.49210787893837,1211290.39882436,1211290.76441344,1211290.76441344,1211291.564425,0.8,1211293.00444499,1211293.00444499,1211294.60447427,1.6,1211296.61549571,1211297.58446945,0.968973747687414,77,Longer,Ring,77,L,Ring
229,Temporal,4132,4,1,70,800,5,5,1,l,l,-1600,-1200,-1600,-800,L,S,=,0.432445911890546,0.290116996553617,1.26907657572479,1.64213786414768,1.08941117708442,1211299.24888582,1211299.69454401,1211299.69454401,1211300.49455494,0.8,1211301.80457337,1211301.80457337,1211303.40459335,1.6,1211305.18223263,1211305.60045214,0.418219509534538,66,Longer,Index,66,L,Index
229,Temporal,4132,4,1,71,800,3.75,3.33333333333333,1,m,m,-800,400,-800,0,=,L,S,0.414222550376399,0.440919771614649,1.67415163297111,1.25256702857703,1.75131143310142,1211306.882213,1211307.31465683,1211307.31465683,1211310.51470259,3.2,1211312.224727,1211312.224727,1211314.62475987,2.4,1211316.01558264,1211318.35244063,2.33685798663646,77,Shorter,Ring,77,S,Ring
229,Temporal,4132,4,1,72,1600,3.75,5,2,m,m,-800,400,-800,800,S,=,L,0.259378231860536,0.260050378299816,1.6294415436212,1.71123648789755,1.46873678960592,1211320.29899334,1211320.57485336,1211320.57485336,1211323.77489111,3.2,1211325.42491364,1211325.42491364,1211328.62496326,3.2,1211330.48238058,1211330.91246592,0.430085339816287,78,Equals to,Middle,78,=,Middle
229,Temporal,4132,4,1,73,1200,20,7.5,1,m,m,-800,800,-800,400,S,=,L,0.42934848970148,0.404468700492471,1.4173676480367,1.54754600397451,1.56005505930292,1211348.84917312,1211349.29526338,1211349.29526338,1211350.09527494,0.8,1211351.54529818,1211351.54529818,1211353.14531976,1.6,1211354.84919347,1211355.93648438,1.0872909091413,77,Longer,Ring,77,L,Ring
229,Temporal,4132,4,1,74,1200,5,5,1,l,l,-1600,-800,-1600,-400,=,L,S,0.221083106838137,0.200342854668161,1.67533868653745,1.40525036631205,1.05300854825015,1211357.68254573,1211357.91538903,1211357.91538903,1211359.5154167,1.6,1211361.22544367,1211361.22544367,1211363.62546981,2.4,1211365.1659192,1211365.69645796,0.530538761522621,78,Longer,Middle,78,L,Middle
229,Temporal,4132,4,1,75,1600,6.66666666666667,5,2,m,m,-800,800,-800,800,L,S,=,0.375928658244328,0.499884396247549,1.03327625600751,1.43629806006274,1.38420128883,1211366.94927123,1211367.33552373,1211367.33552373,1211369.7355566,2.4,1211370.79558129,1211370.79558129,1211373.99568127,3.2,1211375.58263769,1211376.13647373,0.553836042061448,66,Longer,Index,66,L,Index
229,Temporal,4132,4,1,76,800,5,5,1,m,m,-800,400,-800,0,=,L,S,0.406992205074825,0.241517687438306,1.6907290577219,1.70929881875031,1.02984297576805,1211377.69933917,1211378.12567965,1211378.12567965,1211380.52571702,2.4,1211382.25574953,1211382.25574953,1211383.85576533,1.6,1211385.69938239,1211386.16851224,0.469129849690944,77,Shorter,Ring,77,S,Ring
229,Temporal,4132,4,1,77,1200,10,5,1,m,m,-800,800,-800,400,L,S,=,0.440102954551385,0.253873954710822,1.23849588971113,1.16965634069473,1.25325052681969,1211387.38273502,1211387.83582335,1211387.83582335,1211389.43585039,1.6,1211390.70587089,1211390.70587089,1211393.10590536,2.4,1211394.41608297,1211395.41647884,1.00039586983621,66,Longer,Index,66,L,Index
229,Temporal,4132,4,1,78,1200,3.33333333333333,7.5,1,m,m,-800,0,-800,400,L,S,=,0.285593498426968,0.333910372624862,1.15230826400439,1.34042624638792,1.72231792074568,1211396.84944301,1211397.14596782,1211397.14596782,1211399.54598979,2.4,1211400.73601635,1211400.73601635,1211402.33603536,1.6,1211403.81614828,1211404.69651827,0.880369987571612,78,Shorter,Middle,77,=,Ring
229,Temporal,4132,4,1,79,800,7.5,3.33333333333333,1,l,l,-1600,-400,-1600,-800,=,L,S,0.248613743192741,0.27988353274013,1.94537179108181,1.91937283752315,1.24288939800075,1211406.59950902,1211406.86611638,1211406.86611638,1211408.4661216,1.6,1211410.44617801,1211410.44617801,1211412.84618714,2.4,1211414.91620195,1211415.3925162,0.476314247818664,78,Longer,Middle,66,=,Index
229,Temporal,4132,4,1,80,800,2.5,3.33333333333333,1,l,l,-1600,-1200,-1600,-800,S,=,L,0.287552371680601,0.22225766267895,1.25226890515342,1.94796051794455,1.13605647258324,1211416.81623282,1211417.11625866,1211417.11625866,1211418.71628954,1.6,1211419.99629726,1211419.99629726,1211422.39632692,2.4,1211424.49960889,1211425.92850411,1.42889521131292,77,Longer,Ring,77,L,Ring
229,Temporal,4132,4,1,81,1600,10,20,2,l,l,-1600,0,-1600,0,S,=,L,0.450258075531362,0.497667190149789,1.3214709717338,1.1377389356044,1.54243494749843,1211427.24963087,1211427.7164317,1211427.7164317,1211429.31643242,1.6,1211430.66645489,1211430.66645489,1211431.46646325,0.8,1211432.74964601,1211433.46451992,0.714873914374039,66,Shorter,Index,66,S,Index
229,Temporal,4132,4,1,82,800,5,5,1,r,r,0,1200,0,800,L,S,=,0.372548994016592,0.21497364698681,1.34570960483245,1.26962374862226,1.83385170118295,1211435.19967107,1211435.58652062,1211435.58652062,1211437.98654707,2.4,1211439.35657476,1211439.35657476,1211440.95660981,1.6,1211442.36636729,1211443.01652901,0.650161716388538,78,Shorter,Middle,77,=,Ring
229,Temporal,4132,4,1,83,400,2.5,1.25,2,r,r,0,800,0,400,S,=,L,0.429891983627045,0.284803208580591,1.06353728215199,1.57783472173397,1.97150138889969,1211445.06640897,1211445.50666622,1211445.50666622,1211448.70672097,3.2,1211449.79673329,1211449.79673329,1211452.99677296,3.2,1211454.73311209,1211455.18455235,0.451440258184448,78,Equals to,Middle,78,=,Middle
229,Temporal,4132,4,1,84,1200,2.5,5,1,l,l,-1600,-800,-1600,-400,L,S,=,0.276736961909395,0.257735667558032,1.58291166163952,1.15487751410498,1.36418156498227,1211457.34979905,1211457.64684939,1211457.64684939,1211460.84689355,3.2,1211462.46692269,1211462.46692269,1211464.86700111,2.4,1211466.16651873,1211466.74454075,0.578022019937634,78,Shorter,Middle,78,S,Middle
229,Temporal,4132,4,1,85,800,5,5,1,l,l,-1600,-1200,-1600,-800,=,L,S,0.311178757734681,0.238277372502983,1.49190277708511,1.55736761793046,1.71232991617064,1211468.28320368,1211468.60700672,1211468.60700672,1211469.40701059,0.8,1211470.92703703,1211470.92703703,1211472.52706053,1.6,1211474.23321768,1211475.76856691,1.53534922376275,78,Longer,Middle,77,S,Ring
229,Temporal,4132,4,1,86,400,10,5,2,r,r,0,800,0,400,S,=,L,0.465000330077862,0.485156632601981,1.6071940236114,1.69432376977505,1.88578607889129,1211477.64988164,1211478.12714123,1211478.12714123,1211478.92715921,0.8,1211480.57718078,1211480.57718078,1211481.37719011,0.8,1211483.23329755,1211483.63255321,0.399255658267066,78,Equals to,Middle,78,=,Middle
229,Temporal,4132,4,1,87,800,5,5,1,l,l,-1600,-400,-1600,-800,L,S,=,0.288967485811679,0.231355926769935,1.41417160178385,1.71880149256215,1.29100759588664,1211485.69996497,1211486.00726741,1211486.00726741,1211488.40728777,2.4,1211489.84731513,1211489.84731513,1211491.44734088,1.6,1211493.31668306,1211495.11252457,1.79584150575101,78,Shorter,Middle,78,S,Middle
229,Temporal,4132,4,1,88,800,1.25,3.33333333333333,1,m,m,-800,-400,-800,0,L,S,=,0.292702439184225,0.350563877056211,1.31644517930192,1.04450296387733,1.18308480919771,1211496.58338674,1211496.88741412,1211496.88741412,1211500.08745411,3.2,1211501.42748391,1211501.42748391,1211503.82751935,2.4,1211505.03341567,1211505.57654307,0.543127406388521,78,Shorter,Middle,77,=,Ring
229,Temporal,4132,4,1,89,1200,10,5,1,r,r,0,1600,0,1200,S,=,L,0.469088014494392,0.383466850267698,1.34676796695676,1.25327856673833,1.49504552296267,1211506.93344936,1211507.41758524,1211507.41758524,1211509.01759495,1.6,1211510.39761434,1211510.39761434,1211512.79764625,2.4,1211514.20012309,1211515.16054031,0.960417217807844,77,Longer,Ring,78,=,Middle
229,Temporal,4132,4,1,90,400,3.33333333333333,1.25,2,r,r,0,800,0,400,=,L,S,0.27898498142615,0.479559494347402,1.29845515728747,1.46360022171729,1.06920563522545,1211516.83349428,1211517.12771514,1211517.12771514,1211519.52775539,2.4,1211520.8677714,1211520.8677714,1211524.06782102,3.2,1211525.68353847,1211526.44853916,0.765000690706074,78,Longer,Middle,66,=,Index
229,Temporal,4132,4,1,91,1200,6.66666666666667,7.5,1,r,r,0,1600,0,1200,L,S,=,0.236473243633677,0.252428593866417,1.02540130912324,1.18464855775934,1.58884069446794,1211527.70022655,1211527.94786704,1211527.94786704,1211530.34790536,2.4,1211531.40792781,1211531.40792781,1211533.00794361,1.6,1211534.33357963,1211536.1445634,1.81098376959562,78,Shorter,Middle,78,S,Middle
229,Temporal,4132,4,1,92,800,3.75,3.33333333333333,1,l,l,-1600,-400,-1600,-800,L,S,=,0.279088801314776,0.475388327112474,1.08994865781873,1.90906008403495,1.45294589710616,1211537.91695778,1211538.20803438,1211538.20803438,1211541.40807918,3.2,1211542.51808389,1211542.51808389,1211544.91811612,2.4,1211546.96701026,1211548.13655233,1.16954206395894,78,Shorter,Middle,78,S,Middle
229,Temporal,4132,4,1,93,1600,5,5,2,l,l,-1600,0,-1600,0,L,S,=,0.314955325453995,0.414800067529276,1.96833061538319,1.89070002707024,1.13821774344518,1211549.78370744,1211550.11820111,1211550.11820111,1211553.31823629,3.2,1211555.31829055,1211555.31829055,1211558.51832445,3.2,1211560.55040124,1211561.96856941,1.41816816735081,77,Equals to,Ring,77,=,Ring
229,Temporal,4132,4,1,94,400,1.66666666666667,1.25,2,r,r,0,400,0,400,L,S,=,0.457407633565553,0.28706965983671,1.29565807351628,1.42115668456746,1.91187438078827,1211563.30044335,1211563.7683978,1211563.7683978,1211566.16842489,2.4,1211567.4984508,1211567.4984508,1211570.6984924,3.2,1211572.2671611,1211572.71257698,0.445415880763903,66,Longer,Index,66,L,Index
229,Temporal,4132,4,1,95,1200,5,5,1,m,m,-800,800,-800,400,S,=,L,0.469440956117417,0.49100519534562,1.33924225310139,1.35377228322208,1.58261964248604,1211574.80051054,1211575.28856663,1211575.28856663,1211578.48860309,3.2,1211579.85863207,1211579.85863207,1211582.25865339,2.4,1211583.75021221,1211584.28859394,0.538381732767448,66,Shorter,Index,66,S,Index
229,Temporal,4132,4,1,96,1200,10,7.5,1,r,r,0,800,0,1200,S,=,L,0.215682126407905,0.23006961107731,1.52843740239499,1.03157790204017,1.04482458837581,1211586.05057478,1211586.27873918,1211586.27873918,1211587.07874112,0.8,1211588.64875624,1211588.64875624,1211590.24877846,1.6,1211591.43393176,1211591.99257696,0.558645201148465,77,Longer,Ring,78,=,Middle
