Subject,Task,SequenceOrder,ListNo,RunNo,TrialNo,Aud_Probe_Dist,Aud_Standard_Vel,Aud_Probe_Vel,Main_Control,Aud_Std_StartCode,Aud_Probe_StartCode,Aud_Std_StartPt,Aud_Std_EndPt,Aud_Probe_StartPt,Aud_Probe_EndPt,RespIndex,RespMiddle,RespRing,ISI_Cross_Std,ISI_Cross_Probe,ISI_Std_Probe,ISI_Probe_Response,ITI,TrialOnset,StdOnset,StdOnsetByStop,StdOffset,StdDur,ProbeOnset,ProbeOnsetByStop,ProbeOffset,ProbeDur,RespWinStart,RespTime,RT,CorrectKC,CorrectResponse,CorrectFinger,SubjRespKC,SubjResponse,SubjRespFinger
213,Spatial,4132,3,3,1,1200,10,7.5,1,l,l,-1600,-800,-1600,-400,L,S,=,0.338821933426038,0.216258021802419,1.85365620969713,1.50832063279041,1.04465517269309,3138.06450978543,3138.41435893142,3138.41435893142,3139.21545609405,0.8,3141.09565161014,3141.09565161014,3142.69561672611,1.6,3144.34794147955,3145.73651973286,1.38857825330979,66,Longer,Index,66,L,Index
213,Spatial,4132,3,3,2,1600,3.75,5,2,l,l,-1600,-400,-1600,0,=,L,S,0.226300275132446,0.334153166066744,1.70267601376958,1.87483992936784,1.72474122874539,3146.94797487221,3147.18572611965,3147.18572611965,3150.38573403063,3.2,3152.11592085297,3152.11592085297,3155.3158905885,3.2,3157.33135911684,3159.00869470093,1.67733558408145,78,Longer,Middle,77,S,Ring
213,Spatial,4132,3,3,3,800,15,5,1,m,m,-800,400,-800,0,=,L,S,0.455807737822125,0.338073117571711,1.89402636623397,1.25067812666068,1.19427345843034,3160.88138949681,3161.35595272788,3161.35595272788,3162.15579587487,0.8,3164.07621549051,3164.07621549051,3165.67599999487,1.6,3167.08138911185,3167.47269235779,0.391303245940435,77,Shorter,Ring,77,S,Ring
213,Spatial,4132,3,3,4,1200,3.33333333333333,7.5,1,l,l,-1600,-800,-1600,-400,=,L,S,0.386100501924525,0.241191052111879,1.94253804132513,1.98965158502965,1.7460409579662,3168.83144605423,3169.23599132679,3169.23599132679,3171.63599853201,2.4,3173.60637313911,3173.60637313911,3175.20600141281,1.6,3177.33147011439,3178.28862056996,0.957150455571082,78,Longer,Middle,66,=,Index
213,Spatial,4132,3,3,5,400,10,5,2,r,r,0,800,0,400,=,L,S,0.390743821162508,0.493432849423136,1.42948808468061,1.60180040691363,1.03212990549087,3180.18149959611,3180.58650265335,3180.58650265335,3181.38628901837,0.8,3182.84653846771,3182.84653846771,3183.64637166983,0.8,3185.39817129937,3185.80851928631,0.410347986934539,77,Shorter,Ring,66,=,Index
213,Spatial,4132,3,3,6,800,1.25,3.33333333333333,1,m,m,-800,-400,-800,0,=,L,S,0.409938677295209,0.34450083670828,1.73449366408053,1.88518702032737,1.57975905362802,3186.99825772347,3187.42650000994,3187.42650000994,3190.62651658258,3.2,3192.39665578506,3192.39665578506,3194.79655070952,2.4,3196.8315900944,3197.19271195238,0.361121857983107,78,Longer,Middle,66,=,Index
213,Spatial,4132,3,3,7,1200,20,7.5,1,r,r,0,1600,0,1200,S,=,L,0.498877125406122,0.390003521358447,1.37268114912337,1.20031389816553,1.47924366009356,3198.93162358614,3199.44671215,3199.44671215,3200.24653284084,0.8,3201.65669192021,3201.65669192021,3203.25660410383,1.6,3204.59830116008,3205.17676519784,0.578464037757385,66,Shorter,Index,77,L,Ring
213,Spatial,4132,3,3,8,800,5,5,1,m,m,-800,-400,-800,0,=,L,S,0.313889685288587,0.306744157554753,1.0674504537051,1.94947599683321,1.42234156051475,3206.79839444935,3207.12684801613,3207.12684801613,3207.92665555408,0.8,3209.0267571008,3209.0267571008,3210.62676199624,1.6,3212.73168556512,3214.20080482846,1.46911926333541,78,Longer,Middle,66,=,Index
213,Spatial,4132,3,3,9,800,1.25,3.33333333333333,1,l,l,-1600,-1200,-1600,-800,S,=,L,0.303989185252907,0.223202130655959,1.22521454041133,1.46208559329285,1.7165147980347,3215.76509582681,3216.08679939535,3216.08679939535,3219.28670817847,3.2,3220.53711933135,3220.53711933135,3222.93695586981,2.4,3224.54843246441,3225.03274908844,0.48431662403209,77,Longer,Ring,78,=,Middle
213,Spatial,4132,3,3,10,400,5,5,2,m,m,-800,0,-800,-400,L,S,=,0.350035631536922,0.36581957265998,1.75460862201914,1.37913383752961,1.71013022617247,3226.89847798623,3227.26713768765,3227.26713768765,3228.86698988126,1.6,3230.64715735923,3230.64715735923,3231.44705889222,0.8,3232.98182110403,3233.59266787417,0.610846770131957,78,Shorter,Middle,78,S,Middle
213,Spatial,4132,3,3,11,1600,15,20,2,r,r,0,1200,0,1600,S,=,L,0.286233726893486,0.2177841441913,1.06348336941566,1.60800236229116,1.43104540837851,3235.44860171963,3235.7472678435,3235.7472678435,3236.54706222856,0.8,3237.64716602089,3237.64716602089,3238.44704830575,0.8,3240.19854189003,3241.60870349091,1.41016160087975,77,Longer,Ring,78,=,Middle
213,Spatial,4132,3,3,12,800,5,5,1,m,m,-800,-400,-800,0,L,S,=,0.21553792291606,0.413151491360692,1.31781596025966,1.11752805581759,1.38205433284964,3243.19858968955,3243.42731613064,3243.42731613064,3244.2270656034,0.8,3245.57733605245,3245.57733605245,3247.17715103302,1.6,3248.44859434118,3248.90468101679,0.45608667561055,66,Longer,Index,66,L,Index
213,Spatial,4132,3,3,13,1200,10,5,1,l,l,-1600,0,-1600,-400,L,S,=,0.328278616017651,0.490784398228797,1.16054934852526,1.84662067879066,1.88612409533108,3250.44863155423,3250.78738254952,3250.78738254952,3252.38725302885,1.6,3253.57757440846,3253.57757440846,3255.97745714244,2.4,3257.98199273319,3259.20068709407,1.21869436087536,78,Shorter,Middle,78,S,Middle
213,Spatial,4132,3,3,14,800,1.66666666666667,5,1,m,m,-800,-400,-800,0,S,=,L,0.372223058609804,0.270385079106253,1.68805290949696,1.60304301831333,1.48754210960838,3261.23209935153,3261.6178405331,3261.6178405331,3264.01730782828,2.4,3265.73757737267,3265.73757737267,3267.33745683447,1.6,3269.082065042,3270.7047330509,1.62266800890256,77,Longer,Ring,78,=,Middle
213,Spatial,4132,3,3,15,800,3.75,3.33333333333333,1,l,l,-1600,-400,-1600,-800,=,L,S,0.396385666538144,0.441321448711567,1.42465130304491,1.20620159553899,1.77291296042387,3272.34884090972,3272.7578600892,3272.7578600892,3275.9577967821,3.2,3277.40795860754,3277.40795860754,3279.80784936157,2.4,3281.14882332976,3281.67274907561,0.523925745848828,77,Shorter,Ring,66,=,Index
213,Spatial,4132,3,3,16,800,2.5,3.33333333333333,1,l,l,-1600,-1200,-1600,-800,S,=,L,0.325288196880023,0.266744617705584,1.9768099309663,1.4780303318175,1.59777681665653,3283.59887411274,3283.93808706314,3283.93808706314,3285.53794278558,1.6,3287.53813178296,3287.53813178296,3289.93800553448,2.4,3291.56556394132,3292.06475391587,0.499189974547789,77,Longer,Ring,77,L,Ring
213,Spatial,4132,3,3,17,800,15,5,1,m,m,-800,400,-800,0,=,L,S,0.332820722158881,0.361799083053729,1.26900365403212,1.88466648100816,1.33888651973705,3293.8155900867,3294.16782632156,3294.16782632156,3294.96790301253,0.8,3296.26828487617,3296.26828487617,3297.86783808217,1.6,3299.89900690492,3300.46497674505,0.565969840135949,77,Shorter,Ring,77,S,Ring
213,Spatial,4132,3,3,18,400,1.25,1.25,2,r,r,0,400,0,400,S,=,L,0.443380699679993,0.254104015232928,1.91092275622339,1.60394647695022,1.12914948546455,3301.94902068725,3302.40832656762,3302.40832656762,3305.60821674421,3.2,3307.53817573286,3307.53817573286,3310.7380732879,3.2,3312.48234818198,3313.16878299851,0.686434816529982,78,Equals to,Middle,77,L,Ring
213,Spatial,4132,3,3,19,1200,5,5,1,r,r,0,800,0,1200,S,=,L,0.235054568254056,0.406002204185187,1.19464577381347,1.27120403094032,1.58892629250001,3314.44908324367,3314.69837342398,3314.69837342398,3316.29824871535,1.6,3317.52847531716,3317.52847531716,3319.92837505365,2.4,3321.34914228291,3321.85676921429,0.507626931375398,77,Longer,Ring,78,=,Middle
213,Spatial,4132,3,3,20,400,3.33333333333333,1.25,2,r,r,0,800,0,400,=,L,S,0.392676463204717,0.24435991617489,1.61994531602638,1.63677203734609,1.63477467350666,3323.59916411789,3324.00859841537,3324.00859841537,3326.40853600651,2.4,3328.04865890582,3328.04865890582,3331.24850160369,3.2,3333.03251554447,3333.80077672619,0.768261181719936,77,Shorter,Ring,78,L,Middle
213,Spatial,4132,3,3,21,800,7.5,3.33333333333333,1,r,r,0,1200,0,800,=,L,S,0.307210837345643,0.430037638901568,1.64373521002144,1.42622808454915,1.85395771493539,3335.58256677657,3335.9086069487,3335.9086069487,3337.50858746318,1.6,3339.17864762,3339.17864762,3341.57857526628,2.4,3343.14929432839,3344.56878896543,1.41949463704623,77,Shorter,Ring,66,=,Index
213,Spatial,4132,3,3,22,1600,7.5,20,2,l,l,-1600,-400,-1600,0,=,L,S,0.41090201277611,0.30825615854733,1.14713114806952,1.7585605667573,1.72889874073487,3346.56598547536,3346.98907567915,3346.98907567915,3348.58888648929,1.6,3349.75891745311,3349.75891745311,3350.55874135198,0.8,3352.44930074753,3353.76874944261,1.31944869507333,78,Longer,Middle,77,S,Ring
213,Spatial,4132,3,3,23,1200,5,5,1,r,r,0,1600,0,1200,=,L,S,0.391676855624268,0.236767118486232,1.34149186155138,1.22532142901708,1.87101124994424,3355.64933725482,3356.05893291578,3356.05893291578,3359.25896392451,3.2,3360.6189549998,3360.6189549998,3363.01896990427,2.4,3364.38270542727,3364.75278536475,0.370079937481933,77,Shorter,Ring,66,=,Index
213,Spatial,4132,3,3,24,1200,5,5,1,r,r,0,800,0,1200,L,S,=,0.378947679577658,0.418770429471503,1.33681245267472,1.23597759839024,1.59611235006086,3366.7660893511,3367.1590815755,3367.1590815755,3368.75898188944,1.6,3370.11928831324,3370.11928831324,3372.51916110235,2.4,3373.89943012704,3374.4488057498,0.549375622756997,66,Longer,Index,66,L,Index
213,Spatial,4132,3,3,25,800,15,5,1,l,l,-1600,-400,-1600,-800,=,L,S,0.231673583566555,0.217248179264807,1.58811091848259,1.8186207795353,1.24670707888114,3384.43285482483,3384.67953463797,3384.67953463797,3385.47934698796,0.8,3387.09961095039,3387.09961095039,3388.69948688336,1.6,3390.66620374915,3391.08083123689,0.414627487740745,77,Shorter,Ring,66,=,Index
213,Spatial,4132,3,3,26,800,2.5,3.33333333333333,1,l,l,-1600,-1200,-1600,-800,L,S,=,0.373385479977221,0.415787387249404,1.37440702156244,1.93228359580849,1.97730769383247,3392.48290766095,3392.86946138601,3392.86946138601,3394.46929753951,1.6,3395.86964039361,3395.86964039361,3398.26958953364,2.4,3400.34959800281,3400.98482413305,0.635226130234059,66,Longer,Index,66,L,Index
213,Spatial,4132,3,3,27,1200,2.5,5,1,l,l,-1600,-800,-1600,-400,S,=,L,0.21492907485889,0.252204204087398,1.06355407742269,1.56335595452158,1.0867003581326,3403.11634916877,3403.34972050433,3403.34972050433,3406.54964757316,3.2,3407.64994320519,3407.64994320519,3410.0497868013,2.4,3411.7664061228,3412.25663531146,0.490229188667399,77,Longer,Ring,78,=,Middle
213,Spatial,4132,3,3,28,1600,7.5,20,2,l,l,-1600,-400,-1600,0,S,=,L,0.453509987822615,0.422585165459565,1.64884161850941,1.52525625544857,1.31208943752877,3413.49976324801,3413.96993822634,3413.96993822634,3415.56972497631,1.6,3417.24969791986,3417.24969791986,3418.04965078119,0.8,3419.71639420939,3420.24862808957,0.532233880172953,77,Longer,Ring,77,L,Ring
213,Spatial,4132,3,3,29,400,2.5,5,2,r,r,0,400,0,400,L,S,=,0.473783821475405,0.490657002221917,1.22021208686331,1.99706275229222,1.48747326122132,3421.71645002897,3422.20988829669,3422.20988829669,3423.80980882116,1.6,3425.07021584853,3425.07021584853,3425.8697439678,0.8,3428.01651416948,3428.74494143115,0.728427261669822,77,Equals to,Ring,77,=,Ring
213,Spatial,4132,3,3,30,1200,2.5,5,1,r,r,0,800,0,1200,S,=,L,0.497554154628617,0.30786496562482,1.90500188541276,1.01603613682678,1.77200750943054,3430.38319336735,3430.90003800222,3430.90003800222,3434.09987717127,3.2,3436.04031837048,3436.04031837048,3438.44015073852,2.4,3439.59987437387,3440.00072405047,0.400849676599591,77,Longer,Ring,78,=,Middle
213,Spatial,4132,3,3,31,400,3.33333333333333,1.25,2,r,r,0,800,0,400,=,L,S,0.466514509025342,0.39895271565999,1.47114146631066,1.14841826322447,1.92037241657349,3441.91662191477,3442.40014194212,3442.40014194212,3444.80001633525,2.4,3446.30030959333,3446.30030959333,3449.50021901805,3.2,3450.79993718694,3452.43302132115,1.63308413421601,77,Shorter,Ring,66,=,Index
213,Spatial,4132,3,3,32,800,7.5,3.33333333333333,1,l,l,-1600,-400,-1600,-800,S,=,L,0.211199504444333,0.419907487967773,1.16442357711343,1.17493713099756,1.99494097065186,3454.50003721305,3454.73045909355,3454.73045909355,3456.33029588866,1.6,3457.53052748858,3457.53052748858,3459.93038872881,2.4,3461.26667000301,3462.53685343127,1.27018342825886,66,Shorter,Index,78,=,Middle
213,Spatial,4132,3,3,33,400,10,5,2,r,r,0,800,0,400,=,L,S,0.365924026863928,0.344776155347611,1.43788416717687,1.28259672082891,1.13375020999589,3464.66677060657,3465.05048042048,3465.05048042048,3465.85037329181,0.8,3467.32069079612,3467.32069079612,3468.12051533659,0.8,3469.55013043454,3470.57683340038,1.02670296584438,77,Shorter,Ring,78,L,Middle
213,Spatial,4132,3,3,34,800,1.66666666666667,5,1,m,m,-800,-400,-800,0,S,=,L,0.439250428474169,0.444629975529135,1.07444187234426,1.06093609075229,1.6701477079265,3471.88341022961,3472.340758896,3472.340758896,3474.7407773293,2.4,3475.84075151756,3475.84075151756,3477.44064734026,1.6,3478.65011776647,3479.36091846941,0.710800702941924,77,Longer,Ring,66,S,Index
213,Spatial,4132,3,3,35,800,15,5,1,l,l,-1600,-400,-1600,-800,L,S,=,0.279812988332826,0.459971371626803,1.49672855919435,1.31088045099477,1.89248907887,3481.18356524121,3481.48080347467,3481.48080347467,3482.28059401011,0.8,3483.81085147309,3483.81085147309,3485.41066035841,1.6,3486.88358406868,3487.51288662274,0.629302554062633,78,Shorter,Middle,78,S,Middle
213,Spatial,4132,3,3,36,1200,10,5,1,l,l,-1600,0,-1600,-400,S,=,L,0.263249171977989,0.333558047005706,1.59367268658837,1.355994771339,1.13772979122129,3489.55026231993,3489.83094876597,3489.83094876597,3491.43079390194,1.6,3493.06120451587,3493.06120451587,3495.46108596664,2.4,3496.96693588384,3498.28879412393,1.3218582400923,66,Shorter,Index,66,S,Index
213,Spatial,4132,3,3,37,1200,10,7.5,1,m,m,-800,0,-800,400,S,=,L,0.441645365477913,0.362533028348503,1.68533028668712,1.18977483473915,1.61116831440731,3499.58367097761,3500.04111652625,3500.04111652625,3500.840953578,0.8,3502.5511521802,3502.5511521802,3504.15100982745,1.6,3505.4837032146,3506.87273136733,1.38902815272741,77,Longer,Ring,78,=,Middle
213,Spatial,4132,3,3,38,400,2.5,1.25,2,m,m,-800,0,-800,-400,=,L,S,0.45928171562422,0.316442825629456,1.06746282430061,1.4474590592778,1.38694331373915,3508.65036638815,3509.121480996,3509.121480996,3512.32107443059,3.2,3513.41124426326,3513.41124426326,3516.61131216424,3.2,3518.2170489666,3518.6727028801,0.455653913497372,77,Shorter,Ring,66,=,Index
213,Spatial,4132,3,3,39,1200,3.33333333333333,7.5,1,l,l,-1600,-800,-1600,-400,=,L,S,0.458503509109621,0.225241290157974,1.5772205316631,1.05913884142273,1.71263132780008,3520.21709227489,3520.69137769129,3520.69137769129,3523.09134190902,2.4,3524.69148419761,3524.69148419761,3526.29140343887,1.6,3527.48384431917,3527.96100393111,0.477159611936713,78,Longer,Middle,66,=,Index
213,Spatial,4132,3,3,40,800,5,5,1,l,l,-1600,-400,-1600,-800,L,S,=,0.358856054133883,0.337800240706564,1.84277060224025,1.8596429088286,1.41086601693891,3529.83382480224,3530.21168895921,3530.21168895921,3532.61160569822,2.4,3534.49147142968,3534.49147142968,3536.09146894667,1.6,3538.08384485238,3538.85693057777,0.773085725394594,78,Shorter,Middle,78,S,Middle
213,Spatial,4132,3,3,41,400,5,5,2,m,m,-800,-400,-800,-400,L,S,=,0.352283365862631,0.343483723161434,1.39323936000459,1.64935245961,1.87784537918563,3540.41727506796,3540.78156191514,3540.78156191514,3541.58151349326,0.8,3543.01182632669,3543.01182632669,3543.81164958395,0.8,3545.61683197602,3546.18492897119,0.568096995174528,77,Equals to,Ring,77,=,Ring
213,Spatial,4132,3,3,42,1200,5,5,1,l,l,-1600,0,-1600,-400,S,=,L,0.278005411224331,0.466939307216236,1.3906246809675,1.27444677787383,1.43136161369212,3548.21732678127,3548.51194117387,3548.51194117387,3551.71188684923,3.2,3553.14183300579,3553.14183300579,3555.54175712325,2.4,3556.95067859281,3557.57682730514,0.626148712331997,66,Shorter,Index,78,=,Middle
213,Spatial,4132,3,3,43,800,1.25,3.33333333333333,1,m,m,-800,-400,-800,0,S,=,L,0.211555421312538,0.382607928628207,1.60430187856937,1.94216316928102,1.98854033682859,3559.16741472892,3559.39206318134,3559.39206318134,3562.59188310226,3.2,3564.22202552559,3564.22202552559,3566.62190954277,2.4,3568.7008017604,3569.0888403836,0.388038623202647,77,Longer,Ring,78,=,Middle
213,Spatial,4132,3,3,44,1200,5,5,1,m,m,-800,800,-800,400,L,S,=,0.427355299196279,0.34425051604015,1.58142773092135,1.39559959346005,1.20772647637309,3571.23415060891,3571.67235572725,3571.67235572725,3574.8722548863,3.2,3576.48225959567,3576.48225959567,3578.88221194372,2.4,3580.43412840941,3580.84086865526,0.40674024584996,78,Shorter,Middle,77,=,Ring
213,Spatial,4132,3,3,45,800,5,5,1,r,r,0,400,0,800,=,L,S,0.242657145670008,0.246238874384945,1.56674576022121,1.44023285692254,1.96761920191769,3582.20087957536,3582.46226463868,3582.46226463868,3583.26210682327,0.8,3584.86232482117,3584.86232482117,3586.46220588698,1.6,3588.05090293881,3588.55290059688,0.50199765807065,78,Longer,Middle,78,L,Middle
213,Spatial,4132,3,3,46,1600,5,5,2,m,m,-800,800,-800,800,S,=,L,0.363686013892924,0.297923751302377,1.53686955146573,1.62313078944396,1.55174605211733,3590.68422513126,3591.06245532349,3591.06245532349,3594.26248697383,3.2,3595.83259865148,3595.83259865148,3599.03240189068,3.2,3600.80093552326,3601.36872326515,0.567787741892971,78,Equals to,Middle,77,L,Ring
213,Spatial,4132,3,3,47,1200,3.33333333333333,7.5,1,l,l,-1600,-800,-1600,-400,S,=,L,0.280475357249298,0.396969237529654,1.82984686066564,1.60260844688886,1.41647299699094,3603.06768380199,3603.36282591414,3603.36282591414,3605.76271859299,2.4,3607.63278285608,3607.63278285608,3609.23272808232,1.6,3610.98440394328,3611.40893581583,0.424531872552961,77,Longer,Ring,78,=,Middle
213,Spatial,4132,3,3,48,800,3.75,3.33333333333333,1,l,l,-1600,-400,-1600,-800,L,S,=,0.219336174824967,0.40823881415787,1.97696318638078,1.8488184919475,1.05791181101562,3612.98442024313,3613.2229189596,3613.2229189596,3616.42279726651,3.2,3618.42290028891,3618.42290028891,3620.82294310317,2.4,3622.81774106518,3623.36880667371,0.551065608532554,78,Shorter,Middle,77,=,Ring
213,Spatial,4132,3,3,49,1600,3.75,5,2,r,r,0,1200,0,1600,S,=,L,0.470251443363748,0.247970453573325,1.68506175898802,1.50186229899852,1.88519565421399,3663.53471560568,3664.02360104915,3664.02360104915,3667.22353870446,3.2,3668.93386338191,3668.93386338191,3672.13346579896,3.2,3673.78474752549,3674.43287888499,0.648131359501804,77,Longer,Ring,78,=,Middle
213,Spatial,4132,3,3,50,1200,5,5,1,r,r,0,800,0,1200,L,S,=,0.375780676287003,0.310263456618639,1.81156989774432,1.66758585014815,1.19993570558143,3676.46817385937,3676.86400967411,3676.86400967411,3678.46351796781,1.6,3680.31392379537,3680.31392379537,3682.71386491534,2.4,3684.53481890397,3685.41687727328,0.88205836931138,66,Longer,Index,77,=,Ring
213,Spatial,4132,3,3,51,1200,10,5,1,l,l,-1600,0,-1600,-400,L,S,=,0.453193490880055,0.367391682830027,1.51881931971299,1.39990611094667,1.71332264009904,3686.76819509647,3687.2340171103,3687.2340171103,3688.83384235654,1.6,3690.38412493191,3690.38412493191,3692.78372953042,2.4,3694.334953845,3695.3209680141,0.986014169095597,78,Shorter,Middle,78,S,Middle
213,Spatial,4132,3,3,52,1200,6.66666666666667,7.5,1,l,l,-1600,0,-1600,-400,S,=,L,0.353315300052715,0.376850992377822,1.95287828617417,1.09156422165728,1.75075640960935,3697.18496361783,3697.55435731458,3697.55435731458,3699.95388620378,2.4,3701.93439976312,3701.93439976312,3703.53390677361,1.6,3704.76831924691,3705.41691576954,0.648596522632943,66,Shorter,Index,66,S,Index
213,Spatial,4132,3,3,53,800,1.66666666666667,5,1,r,r,0,400,0,800,S,=,L,0.400414802399956,0.4540720790256,1.18495045916128,1.40296044091309,1.99777782932444,3707.31837593265,3707.73442677466,3707.73442677466,3710.13426138832,2.4,3711.35428519825,3711.35428519825,3712.95410242443,1.6,3714.50173201086,3714.8969577048,0.395225693942848,77,Longer,Ring,66,S,Index
213,Spatial,4132,3,3,54,800,5,5,1,l,l,-1600,-400,-1600,-800,L,S,=,0.415167273902035,0.371794056594889,1.19656549679108,1.12298805611908,1.70479149454366,3717.05177009008,3717.48443784234,3717.48443784234,3719.88432185952,2.4,3721.11434443116,3721.11434443116,3722.71422549697,1.6,3723.98509232365,3725.16896681815,1.18387449449574,78,Shorter,Middle,77,=,Ring
213,Spatial,4132,3,3,55,800,1.66666666666667,5,1,m,m,-800,-400,-800,0,S,=,L,0.475654196820978,0.333169310669354,1.53701110659132,1.90037547848645,1.40970167330766,3727.01850579337,3727.50453962645,3727.50453962645,3729.90450897701,2.4,3731.47470630883,3731.47470630883,3733.07452321421,1.6,3735.1185875454,3735.68102609212,0.56243854672357,77,Longer,Ring,77,L,Ring
213,Spatial,4132,3,3,56,1200,5,5,1,l,l,-1600,-800,-1600,-400,S,=,L,0.239795371888762,0.499656613571167,1.33635526804987,1.8124613353637,1.17784554390273,3737.25188487309,3737.50485401256,3737.50485401256,3739.10441908824,1.6,3740.47490456457,3740.47490456457,3742.87475201031,2.4,3744.83480228642,3745.33694973608,0.502147449654785,77,Longer,Ring,78,=,Middle
213,Spatial,4132,3,3,57,1600,10,20,2,m,m,-800,800,-800,800,L,S,=,0.323838064791112,0.409000350761255,1.96492958072239,1.83120121188692,1.9112047803087,3746.65198034381,3746.99497875969,3746.99497875969,3748.59482870769,1.6,3750.5847719257,3750.5847719257,3751.38469591484,0.8,3753.36867900713,3753.79297674248,0.42429773535514,77,Equals to,Ring,77,=,Ring
213,Spatial,4132,3,3,58,1600,10,20,2,m,m,-800,800,-800,800,L,S,=,0.332103888772264,0.393970102084887,1.5042784235473,1.02306266127631,1.91516121201396,3755.85204567491,3756.19501430457,3756.19501430457,3757.79499096942,1.6,3759.32510760025,3759.32510760025,3760.1248987773,0.8,3761.28533298943,3763.31295854659,2.02762555715344,77,Equals to,Ring,77,=,Ring
213,Spatial,4132,3,3,59,800,3.75,3.33333333333333,1,r,r,0,1200,0,800,=,L,S,0.231938642335823,0.462845063791063,1.05382429101748,1.97296854035451,1.23206721596893,3765.38543513284,3765.63515903767,3765.63515903767,3768.83513454763,3.2,3769.92539869613,3769.92539869613,3772.32498083849,2.4,3774.43548287933,3775.04897462006,0.613491740730296,77,Shorter,Ring,66,=,Index
213,Spatial,4132,3,3,60,400,2.5,1.25,2,m,m,-800,0,-800,-400,=,L,S,0.342566279615184,0.391870171279444,1.84524490437855,1.84459929923728,1.89705302920946,3776.43550400906,3776.79530187162,3776.79530187162,3779.99532999314,3.2,3781.8755219804,3781.8755219804,3785.07537847276,3.2,3787.0688284241,3788.69698728276,1.62815885866303,77,Shorter,Ring,77,S,Ring
213,Spatial,4132,3,3,61,1200,2.5,5,1,r,r,0,800,0,1200,L,S,=,0.241925077783038,0.414047163060799,1.81331491244029,1.14974588983311,1.43681700106951,3790.75220278803,3791.00546802789,3791.00546802789,3794.20558052038,3.2,3796.04548713487,3796.04548713487,3798.44546065586,2.4,3799.75231273909,3800.63293207399,0.880619334904623,66,Longer,Index,77,=,Ring
213,Spatial,4132,3,3,62,1600,5,5,2,m,m,-800,800,-800,800,L,S,=,0.460168944681487,0.36594980688833,1.17739896542864,1.45786013242953,1.69437511261334,3802.21900585977,3802.69565398407,3802.69565398407,3805.89560543388,3.2,3807.1156276398,3807.1156276398,3810.31555887907,3.2,3811.91899328433,3812.39303654001,0.474043255680044,77,Equals to,Ring,66,L,Index
213,Spatial,4132,3,3,63,800,1.25,3.33333333333333,1,m,m,-800,-400,-800,0,S,=,L,0.409684179340394,0.262298445786077,1.91075466837283,1.52707876270831,1.34742932327897,3814.25238051242,3814.67587749335,3814.67587749335,3817.87583375519,3.2,3819.81585598678,3819.81585598678,3822.21573422953,2.4,3823.90242289039,3825.57700984157,1.67458695117966,77,Longer,Ring,78,=,Middle
213,Spatial,4132,3,3,64,1600,6.66666666666667,5,2,m,m,-800,800,-800,800,S,=,L,0.385293297857287,0.369291943476003,1.05924456624073,1.7916516248441,1.42211500247797,3827.08589221176,3827.48605596843,3827.48605596843,3829.88595089289,2.4,3830.97620028449,3830.97620028449,3834.17614884707,3.2,3836.10252740773,3836.7049553668,0.602427959063334,78,Equals to,Middle,78,=,Middle
213,Spatial,4132,3,3,65,1600,15,20,2,m,m,-800,400,-800,800,=,L,S,0.214067391331115,0.476216232172367,1.9592069394856,1.48416644659788,1.07011627384576,3838.26925140123,3838.49609130158,3838.49609130158,3839.29599283456,0.8,3841.29626620292,3841.29626620292,3842.09611512435,0.8,3843.73594403295,3844.8168675209,1.08092348794889,78,Longer,Middle,66,=,Index
213,Spatial,4132,3,3,66,400,5,5,2,r,r,0,400,0,400,S,=,L,0.287198210125297,0.379247490384232,1.1365224512094,1.10779429491768,1.87186898056119,3846.03592021779,3846.33654772606,3846.33654772606,3847.13633665749,0.8,3848.30656523544,3848.30656523544,3849.10607346498,0.8,3850.35258435012,3851.15304701099,0.800462660874473,78,Equals to,Middle,78,=,Middle
213,Spatial,4132,3,3,67,800,5,5,1,r,r,0,1200,0,800,L,S,=,0.293787470808651,0.357617176082915,1.68832254240726,1.67989093410607,1.63329120172413,3853.16934857272,3853.47649606408,3853.47649606408,3855.87617893831,2.4,3857.58660274363,3857.58660274363,3859.18651428564,1.6,3861.01939543881,3861.50492302994,0.485527591127266,78,Shorter,Middle,78,S,Middle
213,Spatial,4132,3,3,68,400,2.5,5,2,m,m,-800,-400,-800,-400,=,L,S,0.289725697536747,0.384470149367943,1.28361123719285,1.13016762272555,1.7816993554497,3863.28603201734,3863.58658060828,3863.58658060828,3865.18648445104,1.6,3866.50659243946,3866.50659243946,3867.30640254383,0.8,3868.58603849754,3869.90517697693,1.31913847938495,66,Equals to,Index,77,S,Ring
213,Spatial,4132,3,3,69,800,3.75,3.33333333333333,1,r,r,0,1200,0,800,S,=,L,0.292718039485655,0.387491507477649,1.50690405401504,1.04831217867836,1.41437501764968,3871.83614158706,3872.14666524872,3872.14666524872,3875.34658943034,3.2,3876.88668493314,3876.88668493314,3879.28669406317,2.4,3880.48618819651,3880.96083711399,0.474648917479044,66,Shorter,Index,78,=,Middle
213,Spatial,4132,3,3,70,400,5,5,2,r,r,0,800,0,400,L,S,=,0.301058806772934,0.493084213546397,1.5336117994601,1.98541548971361,1.04230651981428,3882.53618231315,3882.85679355034,3882.85679355034,3884.45662842063,1.6,3886.01708234927,3886.01708234927,3886.81695885969,0.8,3888.95284753621,3889.61712903882,0.66428150261163,78,Shorter,Middle,66,L,Index
213,Spatial,4132,3,3,71,1600,5,5,2,r,r,0,1200,0,1600,L,S,=,0.460973165118109,0.223286697004698,1.94080993883179,1.27992302861908,1.65909011625786,3890.81954718134,3891.29697164686,3891.29697164686,3893.69688934828,2.4,3895.67689892743,3895.67689892743,3898.87694758029,3.2,3900.30294631119,3900.69696482661,0.394018515417429,66,Longer,Index,66,L,Index
213,Spatial,4132,3,3,72,1200,6.66666666666667,7.5,1,r,r,0,1600,0,1200,L,S,=,0.30892719490172,0.347856105265708,1.53276623078778,1.49894092671654,1.05416747773489,3902.50299436736,3902.82696472395,3902.82696472395,3905.22691578879,2.4,3906.7871570256,3906.7871570256,3908.38702686333,1.6,3910.03632122049,3911.2169748613,1.18065364081576,78,Shorter,Middle,77,=,Ring
213,Spatial,4132,3,3,73,1200,6.66666666666667,7.5,1,r,r,0,1600,0,1200,L,S,=,0.321493833957457,0.338239308091124,1.50729770697994,1.02260372591858,1.46864154648473,3935.33651087872,3935.67748952421,3935.67748952421,3938.07743128578,2.4,3939.6076938816,3939.6076938816,3941.20752105264,1.6,3942.36986371683,3943.57705250826,1.20718879142896,78,Shorter,Middle,77,=,Ring
213,Spatial,4132,3,3,74,800,7.5,3.33333333333333,1,m,m,-800,400,-800,0,=,L,S,0.412936395265397,0.202037550920144,1.98192566170771,1.24617855267512,1.53375458173903,3945.20325351134,3945.62770134987,3945.62770134987,3947.22759203974,1.6,3949.237923839,3949.237923839,3951.63779823212,2.4,3953.03659999756,3953.57702459847,0.540424600906135,77,Shorter,Ring,77,S,Ring
213,Spatial,4132,3,3,75,800,2.5,3.33333333333333,1,l,l,-1600,-1200,-1600,-800,S,=,L,0.381937175901028,0.26690451364614,1.28511424908408,1.76259817648954,1.85220198790194,3955.2699822853,3955.66803805099,3955.66803805099,3957.26784212428,1.6,3958.5881881479,3958.5881881479,3960.98772762357,2.4,3962.90340134965,3963.46502967741,0.561628327755443,77,Longer,Ring,78,=,Middle
213,Spatial,4132,3,3,76,800,5,5,1,r,r,0,1200,0,800,S,=,L,0.327499177938754,0.29301199011072,1.18897834269609,1.0440129201668,1.90135537932178,3965.47007782019,3965.80783914081,3965.80783914081,3968.20788067186,2.4,3969.42814412101,3969.42814412101,3971.02818975833,1.6,3972.22006001567,3972.53707253914,0.317012523474659,66,Shorter,Index,78,=,Middle
213,Spatial,4132,3,3,77,1600,20,20,2,r,r,0,1600,0,1600,=,L,S,0.46267888415183,0.293588781145542,1.35822425713623,1.33381487644763,1.31663828849806,3974.58676896406,3975.06823682,3975.06823682,3975.86803697951,0.8,3977.25832332751,3977.25832332751,3978.05814401836,0.8,3979.53684399555,3980.05705690966,0.520212914115746,66,Equals to,Index,77,S,Ring
213,Spatial,4132,3,3,78,1600,20,20,2,l,l,-1600,0,-1600,0,L,S,=,0.394925753185076,0.240338086591473,1.31026635646403,1.18294791170732,1.0221805977689,3981.52016145331,3981.9283353191,3981.9283353191,3982.72830710776,0.8,3984.05856880533,3984.05856880533,3984.85810943588,0.8,3986.18681528789,3986.72906108266,0.542245794764767,77,Equals to,Ring,77,=,Ring
213,Spatial,4132,3,3,79,400,1.66666666666667,1.25,2,l,l,-1600,-1200,-1600,-1200,=,L,S,0.484291808362823,0.405446602091162,1.15739882059708,1.42102125890487,1.1540516434537,3987.90356462527,3988.39829957532,3988.39829957532,3990.79836484573,2.4,3991.98864067143,3991.98864067143,3995.18855202096,3.2,3996.75357902929,3997.35317270128,0.599593671984621,66,Equals to,Index,78,L,Middle
213,Spatial,4132,3,3,80,800,7.5,3.33333333333333,1,m,m,-800,400,-800,0,=,L,S,0.462107827938717,0.370748006951302,1.92767609957813,1.76586037627528,1.76221341006602,3998.65364145739,3999.12868268368,3999.12868268368,4000.72863496756,1.6,4002.67863382551,4002.67863382551,4005.07868722624,2.4,4006.98698152757,4007.45707506706,0.470093539493519,77,Shorter,Ring,77,S,Ring
213,Spatial,4132,3,3,81,1200,5,5,1,m,m,-800,800,-800,400,S,=,L,0.314802137525159,0.283725356504556,1.53727074370272,1.54004887917701,1.92061309006346,4009.37032855916,4009.69869422614,4009.69869422614,4012.89873485894,3.2,4014.46906756928,4014.46906756928,4016.86882743603,2.4,4018.55375940962,4018.98509713569,0.431337726065976,66,Shorter,Index,78,=,Middle
213,Spatial,4132,3,3,82,1200,10,7.5,1,l,l,-1600,-800,-1600,-400,L,S,=,0.388080996410586,0.393691028475217,1.41388678971954,1.04437746109077,1.86371892587379,4021.05377061234,4021.4590579003,4021.4590579003,4022.25888853601,0.8,4023.69872149432,4023.69872149432,4025.29881878079,1.6,4026.50375242286,4027.62511508777,1.12136266491643,66,Longer,Index,77,=,Ring
213,Spatial,4132,3,3,83,1200,10,7.5,1,m,m,-800,0,-800,400,L,S,=,0.446346573058645,0.3775698166916,1.128508040782,1.46903113036373,1.63429312665342,4029.65382752264,4030.11921805757,4030.11921805757,4030.91910772087,0.8,4032.07921178268,4032.07921178268,4033.67912974073,1.6,4035.28721473082,4035.95310546114,0.665890730323554,66,Longer,Index,66,L,Index
213,Spatial,4132,3,3,84,1200,3.33333333333333,7.5,1,m,m,-800,0,-800,400,=,L,S,0.346580701663593,0.347325897770742,1.12954364790839,1.40111244414715,1.94898719317501,4037.737254049,4038.09941782749,4038.09941782749,4040.49923447622,2.4,4041.66941204663,4041.66941204663,4043.26929792447,1.6,4044.82055032969,4045.56929102081,0.748740691123203,78,Longer,Middle,66,=,Index
213,Spatial,4132,3,3,85,1600,5,5,2,r,r,0,1200,0,1600,S,=,L,0.445470871407434,0.32129904829555,1.25530047687106,1.16811908437149,1.08290998197329,4047.67060162595,4048.12941796223,4048.12941796223,4050.52933951327,2.4,4051.80946849498,4051.80946849498,4055.00928649109,3.2,4056.32068219205,4056.8329416339,0.512259441843071,77,Longer,Ring,77,L,Ring
213,Spatial,4132,3,3,86,400,1.66666666666667,1.25,2,l,l,-1600,-1200,-1600,-1200,S,=,L,0.333669754983624,0.202623455724797,1.22459429310292,1.04071830748776,1.35531169250892,4058.07068394379,4058.41952737501,4058.41952737501,4060.81951436969,2.4,4062.07976227918,4062.07976227918,4065.27959118256,3.2,4066.45405311072,4067.00113018601,0.547077075285415,78,Equals to,Middle,77,L,Ring
213,Spatial,4132,3,3,87,1200,2.5,5,1,m,m,-800,0,-800,400,L,S,=,0.306670638098653,0.247306769205673,1.60556192599845,1.79801336054667,1.27565640972378,4068.52073248115,4068.83955973753,4068.83955973753,4072.0394768615,3.2,4073.67994718955,4073.67994718955,4076.0794696627,2.4,4078.02079728319,4078.5131172795,0.492319996304104,66,Longer,Index,77,=,Ring
213,Spatial,4132,3,3,88,1200,20,7.5,1,l,l,-1600,0,-1600,-400,L,S,=,0.29606654013474,0.350472778266327,1.62298616294649,1.33731905471965,1.78393695598886,4079.93751960903,4080.2499128573,4080.2499128573,4081.04976947798,0.8,4082.70983793075,4082.70983793075,4084.30982101164,1.6,4085.78750642406,4087.16913331447,1.38162689040655,78,Shorter,Middle,77,=,Ring
213,Spatial,4132,3,3,89,1200,10,5,1,l,l,-1600,0,-1600,-400,=,L,S,0.39598094299833,0.463490944693579,1.68728784560205,1.75979132352569,1.65427293719663,4089.10423888725,4089.52005586449,4089.52005586449,4091.11988592275,1.6,4092.84002907109,4092.84002907109,4095.23997949433,2.4,4097.13762445986,4098.48924286199,1.35161840213641,77,Shorter,Ring,78,L,Middle
213,Spatial,4132,3,3,90,800,5,5,1,r,r,0,400,0,800,L,S,=,0.337061925273911,0.309470474509946,1.81923021036348,1.38218700194979,1.85693436604725,4100.30429335946,4100.66026693948,4100.66026693948,4101.46011682331,0.8,4103.3100956632,4103.3100956632,4104.91001297966,1.6,4106.43760943364,4107.62517347377,1.18756404013129,66,Longer,Index,77,=,Ring
213,Spatial,4132,3,3,91,400,1.25,1.25,2,r,r,0,400,0,400,=,L,S,0.296876082934817,0.379502929414195,1.14103321481701,1.85470019804908,1.29977424484194,4109.65433823968,4109.97049257247,4109.97049257247,4113.17008696947,3.2,4114.34023181806,4114.34023181806,4117.54009697208,3.2,4119.53777318374,4119.99298918961,0.455216005872899,66,Equals to,Index,78,L,Middle
213,Spatial,4132,3,3,92,1600,6.66666666666667,5,2,m,m,-800,800,-800,800,=,L,S,0.360330704431853,0.248441997833895,1.93762735870329,1.11996749985316,1.2375328446497,4121.45441272994,4121.83062347258,4121.83062347258,4124.23049882811,2.4,4126.19063214707,4126.19063214707,4129.39054702543,3.2,4130.65444282119,4131.04919693595,0.394754114769057,66,Equals to,Index,66,=,Index
213,Spatial,4132,3,3,93,1200,20,7.5,1,r,r,0,1600,0,1200,=,L,S,0.32224268522203,0.418507287281406,1.52856837918201,1.44356807958652,1.75533070214118,4132.4378564513,4132.77059144369,4132.77059144369,4133.57045448042,0.8,4135.13071528616,4135.13071528616,4136.73061175047,1.6,4138.32122146048,4138.92104128531,0.599819824829865,77,Shorter,Ring,78,L,Middle
213,Spatial,4132,3,3,94,1200,20,7.5,1,m,m,-800,800,-800,400,L,S,=,0.401661343817281,0.456318908446223,1.02466739479732,1.9619194767534,1.89871865409762,4140.82126315209,4141.2407321411,4141.2407321411,4142.04050503242,0.8,4143.09084021935,4143.09084021935,4144.69065167109,1.6,4146.80454775557,4148.02514158603,1.22059383046144,78,Shorter,Middle,78,S,Middle
213,Spatial,4132,3,3,95,1200,6.66666666666667,7.5,1,l,l,-1600,0,-1600,-400,L,S,=,0.418525165502753,0.254287818091318,1.17044020324878,1.11723898796266,1.01256393811141,4150.08792962627,4150.52101827097,4150.52101827097,4152.92088753125,2.4,4154.12093659474,4154.12093659474,4155.72077178584,1.6,4156.98802552723,4157.40097831827,0.412952791033604,78,Shorter,Middle,78,S,Middle
213,Spatial,4132,3,3,96,800,2.5,3.33333333333333,1,m,m,-800,-400,-800,0,=,L,S,0.349507869165844,0.402048887517736,1.79394641717765,1.07555299900482,1.35211031168169,4158.57133485137,4158.94090531011,4158.94090531011,4160.54077258142,1.6,4162.36104385815,4162.36104385815,4164.76088585025,2.4,4165.97134113909,4166.57710929024,0.605768151146549,78,Longer,Middle,66,=,Index
