Subject,Task,SequenceOrder,ListNo,RunNo,TrialNo,Aud_Probe_Dist,Aud_Standard_Vel,Aud_Probe_Vel,Main_Control,Aud_Std_StartCode,Aud_Probe_StartCode,Aud_Std_StartPt,Aud_Std_EndPt,Aud_Probe_StartPt,Aud_Probe_EndPt,RespIndex,RespMiddle,RespRing,ISI_Cross_Std,ISI_Cross_Probe,ISI_Std_Probe,ISI_Probe_Response,ITI,TrialOnset,StdOnset,StdOnsetByStop,StdOffset,StdDur,ProbeOnset,ProbeOnsetByStop,ProbeOffset,ProbeDur,RespWinStart,RespTime,RT,CorrectKC,CorrectResponse,CorrectFinger,SubjRespKC,SubjResponse,SubjRespFinger
226,Spatial,4132,1,2,1,400,1.66666666666667,1.25,2,m,m,-800,-400,-800,-400,L,S,=,0.408977866370637,0.462157123118618,1.94047506184452,1.80037906257246,1.51549129903945,778674.917225344,778675.33726504,778675.33726504,778677.738165358,2.4,778679.708445008,778679.708445008,778682.908380097,3.2,778684.850628501,778685.509753027,0.659124526195228,77,Equals to,Ring,77,=,Ring
226,Spatial,4132,1,2,2,400,1.25,1.25,2,r,r,0,400,0,400,=,L,S,0.215234160512149,0.476128498740438,1.25759976462363,1.59925195658626,1.56886394370899,778687.184005703,778687.418342011,778687.418342011,778690.618334203,3.2,778691.908820924,778691.908820924,778695.108699231,3.2,778696.850718565,778697.29396738,0.4432488149032,66,Equals to,Index,78,L,Middle
226,Spatial,4132,1,2,3,1200,20,7.5,1,l,l,-1600,0,-1600,-400,S,=,L,0.315496637231069,0.322373516184591,1.43590756407883,1.5644632101892,1.60675523725785,778699.017397422,778699.348912083,778699.348912083,778700.148729245,0.8,778701.618734929,778701.618734929,778703.218616316,1.6,778704.934073873,778705.366059645,0.431985771865584,66,Shorter,Index,66,S,Index
226,Spatial,4132,1,2,4,800,1.25,3.33333333333333,1,r,r,0,400,0,800,S,=,L,0.341294344162395,0.406641393072021,1.52161754976102,1.77777377674831,1.93392846153094,778707.134151764,778707.489033975,778707.489033975,778710.688957836,3.2,778712.239104391,778712.239104391,778714.638959857,2.4,778716.567484584,778717.045921225,0.478436641278677,77,Longer,Ring,77,L,Ring
226,Spatial,4132,1,2,5,1200,5,5,1,m,m,-800,800,-800,400,=,L,S,0.37733393997279,0.231746570631154,1.15191825788365,1.98104210256699,1.78373302828413,778719.134240305,778719.528974165,778719.528974165,778722.728914386,3.2,778723.919030453,778723.919030453,778726.318971572,2.4,778728.450899946,778728.853916641,0.403016695170663,77,Shorter,Ring,66,=,Index
226,Spatial,4132,1,2,6,1600,20,20,2,r,r,0,1600,0,1600,L,S,=,0.238716217114796,0.240104433265008,1.50435823501656,1.99489347230468,1.52365665009541,778730.784274342,778731.039373287,778731.039373287,778731.838993798,0.8,778733.369299381,778733.369299381,778734.169167871,0.8,778736.317636163,778736.949962242,0.632326078717597,77,Equals to,Ring,77,=,Ring
226,Spatial,4132,1,2,7,800,2.5,3.33333333333333,1,r,r,0,400,0,800,S,=,L,0.241810256768246,0.300843011693206,1.41825819687481,1.99363461713846,1.19601770849299,778738.617703916,778738.879363265,778738.879363265,778740.47924786,1.6,778741.939427375,778741.939427375,778744.339514139,2.4,778746.484349667,778746.957957594,0.47360792721156,77,Longer,Ring,77,L,Ring
226,Spatial,4132,1,2,8,800,3.75,3.33333333333333,1,r,r,0,1200,0,800,=,L,S,0.45342621942239,0.215807719193545,1.10168427253907,1.7276543768684,1.9882637280535,778748.317727271,778748.789505939,778748.789505939,778751.98940574,3.2,778753.119509667,778753.119509667,778755.519390155,2.4,778757.40108707,778757.845941821,0.444854750414379,77,Shorter,Ring,78,L,Middle
226,Spatial,4132,1,2,9,1600,7.5,20,2,r,r,0,1200,0,1600,=,L,S,0.378639593229837,0.408800892668101,1.66102155098727,1.50749381080107,1.45696758079913,778759.98451103,778760.37945309,778760.37945309,778761.979472742,1.6,778763.679567681,778763.679567681,778764.479554868,0.8,778766.134475453,778766.565937034,0.431461581028998,78,Longer,Middle,66,=,Index
226,Spatial,4132,1,2,10,800,1.25,3.33333333333333,1,r,r,0,400,0,800,L,S,=,0.350047123151417,0.369891340089489,1.33433986896426,1.23967277883323,1.7695538846959,778768.167865184,778768.529650416,778768.529650416,778771.72963587,3.2,778773.100060715,778773.100060715,778775.499906557,2.4,778776.884561909,778777.381952184,0.497390274424106,66,Longer,Index,66,L,Index
226,Spatial,4132,1,2,11,800,2.5,3.33333333333333,1,m,m,-800,-400,-800,0,S,=,L,0.474372907077666,0.243692822975268,1.39403609707206,1.1064430018273,1.38277192421509,778779.317956323,778779.809953548,778779.809953548,778781.409812478,1.6,778782.830219262,778782.830219262,778785.229756171,2.4,778786.484608233,778787.005910138,0.521301904926077,77,Longer,Ring,77,L,Ring
226,Spatial,4132,1,2,12,400,1.25,1.25,2,l,l,-1600,-1200,-1600,-1200,L,S,=,0.257950728496001,0.496954102474634,1.89101776990018,1.24149692308151,1.45734792091853,778788.551362351,778788.820045984,778788.820045984,778792.02016008,3.2,778793.940170673,778793.940170673,778797.139969421,3.2,778798.518059878,778799.077952038,0.559892159188166,77,Equals to,Ring,66,L,Index
226,Spatial,4132,1,2,13,800,15,5,1,m,m,-800,400,-800,0,S,=,L,0.242362897867558,0.206769544353885,1.42301846332828,1.5770551599678,1.5967987014925,778800.684774986,778800.94044528,778800.94044528,778801.74026565,0.8,778803.190144207,778803.190144207,778804.790167709,1.6,778806.518074314,778807.533980006,1.01590569189284,66,Shorter,Index,77,L,Ring
226,Spatial,4132,1,2,14,800,15,5,1,m,m,-800,400,-800,0,=,L,S,0.484089536542664,0.40538731447607,1.72543013571357,1.67990150420184,1.65695193773648,778809.268169432,778809.770278662,778809.770278662,778810.570227353,0.8,778812.320591027,778812.320591027,778813.920262609,1.6,778815.751476171,778816.693821607,0.942345435847528,77,Shorter,Ring,77,S,Ring
226,Spatial,4132,1,2,15,1200,20,7.5,1,l,l,-1600,0,-1600,-400,L,S,=,0.373108823763149,0.373020677473568,1.69158146491112,1.02133947235777,1.76144880838994,778818.501559098,778818.890531993,778818.890531993,778819.690459831,0.8,778821.410572183,778821.410572183,778823.010476026,1.6,778824.168197535,778825.669947831,1.50175029656384,78,Shorter,Middle,78,S,Middle
226,Spatial,4132,1,2,16,1200,3.33333333333333,7.5,1,r,r,0,800,0,1200,S,=,L,0.290615369719681,0.392437382616035,1.46542865296813,1.23298689340246,1.06058906466574,778827.58493558,778827.890861136,778827.890861136,778830.290716281,2.4,778831.781033233,778831.781033233,778833.38058676,1.6,778834.768265352,778835.197924346,0.42965899372939,77,Longer,Ring,77,L,Ring
226,Spatial,4132,1,2,17,800,2.5,3.33333333333333,1,r,r,0,400,0,800,L,S,=,0.438593981294655,0.287875724252807,1.73984230379829,1.00781565437182,1.5964840094008,778836.401665477,778836.850850049,778836.850850049,778838.450787897,1.6,778840.220805194,778840.220805194,778842.620849612,2.4,778843.768381443,778844.261947474,0.493566031800583,66,Longer,Index,66,L,Index
226,Spatial,4132,1,2,18,1600,7.5,20,2,m,m,-800,400,-800,800,=,L,S,0.236324875877962,0.222945654509901,1.97854598507828,1.15719798936902,1.90828727536171,778846.001710424,778846.250997489,778846.250997489,778847.850818244,1.6,778849.86100857,778849.86100857,778850.660822524,0.8,778851.951730182,778852.525988183,0.574258000706322,78,Longer,Middle,78,L,Middle
226,Spatial,4132,1,2,19,800,3.75,3.33333333333333,1,m,m,-800,400,-800,0,L,S,=,0.367884088701338,0.313073833685479,1.8311305689345,1.24819608911976,1.07947367275467,778854.585127099,778854.971174919,778854.971174919,778858.171072794,3.2,778860.031310887,778860.031310887,778862.431139727,2.4,778863.835179413,778864.589905768,0.754726354964077,78,Shorter,Middle,78,S,Middle
226,Spatial,4132,1,2,20,1600,10,20,2,m,m,-800,800,-800,800,S,=,L,0.428122636217086,0.361959186406082,1.13254810871629,1.25725037448408,1.81124462700079,778865.818526068,778866.261354266,778866.261354266,778867.861292435,1.6,778869.011276151,778869.011276151,778869.811286757,0.8,778871.201902293,778871.654038931,0.452136638574302,78,Equals to,Middle,66,S,Index
226,Spatial,4132,1,2,21,1200,6.66666666666667,7.5,1,l,l,-1600,0,-1600,-400,S,=,L,0.497825439276246,0.270646578941881,1.50080553475506,1.13714045792933,1.27107804525355,778873.618588368,778874.131444469,778874.131444469,778876.531284537,2.4,778878.071537553,778878.071537553,778879.671244424,1.6,778880.951964405,778881.318035882,0.366071476833895,66,Shorter,Index,78,=,Middle
226,Spatial,4132,1,2,22,1200,3.33333333333333,7.5,1,l,l,-1600,-800,-1600,-400,S,=,L,0.304316574593591,0.22028850896272,1.13956126977587,1.04361047459199,1.01895302651724,778882.735349767,778883.051749514,778883.051749514,778885.45134128,2.4,778886.621748224,778886.621748224,778888.221671636,1.6,778889.418627249,778889.829961382,0.411334132775664,77,Longer,Ring,78,=,Middle
226,Spatial,4132,1,2,23,400,3.33333333333333,1.25,2,r,r,0,800,0,400,=,L,S,0.436884754930784,0.468018104427778,1.79915129734943,1.07789961931139,1.98810147875266,778891.002045114,778891.45167913,778891.45167913,778893.851721944,2.4,778895.681776083,778895.681776083,778898.881832435,3.2,778900.118571686,778900.605863109,0.487291422439739,77,Shorter,Ring,78,L,Middle
226,Spatial,4132,1,2,24,800,3.75,3.33333333333333,1,r,r,0,1200,0,800,S,=,L,0.2460442168735,0.379816621446456,1.54903868320918,1.69755392106033,1.57307901034371,778902.735491241,778902.991819821,778902.991819821,778906.191820674,3.2,778907.761879419,778907.761879419,778910.161884379,2.4,778912.018775267,778912.389994694,0.371219426742755,66,Shorter,Index,78,=,Middle
226,Spatial,4132,1,2,25,800,1.66666666666667,5,1,m,m,-800,-400,-800,0,L,S,=,0.360185194677535,0.361581391993641,1.96633650832899,1.39270607042587,1.82590975772655,778933.568944234,778933.942270644,778933.942270644,778936.342191233,2.4,778938.332244486,778938.332244486,778939.932269592,1.6,778941.46898998,778942.078254875,0.609264894737862,66,Longer,Index,78,S,Middle
226,Spatial,4132,1,2,26,800,5,5,1,r,r,0,400,0,800,L,S,=,0.30736579518999,0.292441833144808,1.72649838190279,1.24132908902958,1.32295569861606,778944.052437359,778944.372613267,778944.372613267,778945.172396745,0.8,778946.922690805,778946.922690805,778948.522565776,1.6,778949.902362259,778950.261944587,0.359582328470424,66,Longer,Index,66,L,Index
226,Spatial,4132,1,2,27,1600,5,5,2,l,l,-1600,-400,-1600,0,L,S,=,0.341929689823573,0.351230854679934,1.45587582183884,1.82940560450079,1.40193511872563,778951.752397194,778952.112519708,778952.112519708,778954.512365871,2.4,778956.002847716,778956.002847716,778959.202704529,3.2,778961.185831348,778961.630032343,0.444200995611027,66,Longer,Index,66,L,Index
226,Spatial,4132,1,2,28,1200,20,7.5,1,l,l,-1600,0,-1600,-400,S,=,L,0.41204486300592,0.482144022071684,1.69030278993746,1.29035207562727,1.30795060755822,778963.185811177,778963.612709944,778963.612709944,778964.412549562,0.8,778966.142792525,778966.142792525,778967.742680328,1.6,778969.169150638,778969.846031324,0.676880686543882,66,Shorter,Index,66,S,Index
226,Spatial,4132,1,2,29,1600,5,5,2,r,r,0,1600,0,1600,=,L,S,0.244216924627298,0.418196973772083,1.40075272254247,1.96384476836407,1.02563320718061,778971.319203602,778971.583111133,778971.583111133,778974.78299329,3.2,778976.222905486,778976.222905486,778979.422859502,3.2,778981.535964575,778981.965977648,0.430013073142618,66,Equals to,Index,66,=,Index
226,Spatial,4132,1,2,30,1200,10,7.5,1,m,m,-800,0,-800,400,S,=,L,0.271701587476447,0.446422029564283,1.90234090409468,1.5236959455362,1.79281540463122,778983.135994139,778983.423063256,778983.423063256,778984.223056218,0.8,778986.1531724,778986.1531724,778987.753064373,1.6,778989.419288743,778989.99801231,0.578723566606641,77,Longer,Ring,77,L,Ring
226,Spatial,4132,1,2,31,1600,10,20,2,r,r,0,1600,0,1600,L,S,=,0.257616682690002,0.217505402370644,1.96399552365303,1.16144716150737,1.25262936269614,778991.936007669,778992.213292328,778992.213292328,778993.813134898,1.6,778995.813162853,778995.813162853,778996.613112185,0.8,778997.936063846,778998.406032235,0.469968389137648,77,Equals to,Ring,78,S,Middle
226,Spatial,4132,1,2,32,1200,3.33333333333333,7.5,1,l,l,-1600,-800,-1600,-400,L,S,=,0.309813237352448,0.231181069860356,1.66424569635086,1.41150093642304,1.58149306938994,778999.802772116,779000.123404205,779000.123404205,779002.523275711,2.4,779004.213311897,779004.213311897,779005.813345023,1.6,779007.386088928,779007.798143903,0.412054975284263,66,Longer,Index,78,S,Middle
226,Spatial,4132,1,2,33,800,7.5,3.33333333333333,1,l,l,-1600,-400,-1600,-800,=,L,S,0.308644531924642,0.473135319711664,1.37050675299933,1.05522475002896,1.51296506295596,779009.535878513,779009.86338411,779009.86338411,779011.463281537,1.6,779012.873499964,779012.873499964,779015.273314047,2.4,779016.469462201,779016.862045447,0.392583246575668,77,Shorter,Ring,78,L,Middle
226,Spatial,4132,1,2,34,1600,6.66666666666667,5,2,m,m,-800,800,-800,800,S,=,L,0.339286061776116,0.387162919652608,1.39108586318677,1.98236845786459,1.8870085107623,779018.536175897,779018.893650831,779018.893650831,779021.293488974,2.4,779022.713586825,779022.713586825,779025.913506836,3.2,779028.052874612,779028.510007103,0.457132490584627,78,Equals to,Middle,78,=,Middle
226,Spatial,4132,1,2,35,800,15,5,1,r,r,0,1200,0,800,L,S,=,0.477540799037738,0.475839036474707,1.6258525256857,1.0559126862633,1.74128083527301,779030.552964116,779031.043938623,779031.043938623,779031.84380166,0.8,779033.494069606,779033.494069606,779035.093604206,1.6,779036.286322206,779036.910046754,0.623724547564052,78,Shorter,Middle,66,L,Index
226,Spatial,4132,1,2,36,800,7.5,3.33333333333333,1,m,m,-800,400,-800,0,S,=,L,0.309959059051983,0.238954778604941,1.7497696813315,1.03311455005959,1.94478866174994,779038.803023576,779039.124188566,779039.124188566,779040.723794063,1.6,779042.504198293,779042.504198293,779044.904008526,2.4,779046.086343901,779046.910075305,0.82373140391428,66,Shorter,Index,78,=,Middle
226,Spatial,4132,1,2,37,800,5,5,1,m,m,-800,400,-800,0,L,S,=,0.327794963473545,0.497864700780408,1.46589993363416,1.74453096507029,1.57640580219233,779049.01972035,779049.363898677,779049.363898677,779051.763878293,2.4,779053.264338368,779053.264338368,779054.864186391,1.6,779056.769798008,779057.158076547,0.388278539525345,78,Shorter,Middle,78,S,Middle
226,Spatial,4132,1,2,38,1200,10,7.5,1,m,m,-800,0,-800,400,L,S,=,0.255560046059691,0.337956757874802,1.17168390078362,1.53156008899596,1.22329170678003,779058.886475815,779059.154166886,779059.154166886,779059.954090234,0.8,779061.154311889,779061.154311889,779062.754139381,1.6,779064.436469944,779065.55797697,1.12150702590588,66,Longer,Index,77,=,Ring
226,Spatial,4132,1,2,39,1200,5,5,1,l,l,-1600,-800,-1600,-400,S,=,L,0.316850356899123,0.282703347712353,1.9334305980267,1.47602240505486,1.39535503254628,779066.936537313,779067.264325536,779067.264325536,779068.864225529,1.6,779070.834627084,779070.834627084,779073.234207301,2.4,779074.853242548,779075.606035379,0.752792831743136,77,Longer,Ring,78,=,Middle
226,Spatial,4132,1,2,40,800,5,5,1,m,m,-800,-400,-800,0,L,S,=,0.32903515532527,0.243335674862084,1.64529565240359,1.78975872423165,1.16316116731166,779077.153245587,779077.494498519,779077.494498519,779078.294278147,0.8,779079.964645632,779079.964645632,779081.564520282,1.6,779083.503244593,779084.709914327,1.20666973351035,66,Longer,Index,78,S,Middle
226,Spatial,4132,1,2,41,400,2.5,5,2,l,l,-1600,-1200,-1600,-1200,S,=,L,0.456765329233297,0.270523588293139,1.66147291799318,1.51500761138684,1.05473420844013,779086.019959848,779086.494658278,779086.494658278,779088.094475825,1.6,779089.784540563,779089.784540563,779090.584430226,0.8,779092.253323992,779093.934018695,1.68069470347837,78,Equals to,Middle,78,=,Middle
226,Spatial,4132,1,2,42,1200,10,5,1,l,l,-1600,0,-1600,-400,=,L,S,0.255183301566734,0.352681498031526,1.88387155845507,1.84579626709876,1.48032255243693,779095.136731013,779095.405030325,779095.405030325,779097.004563642,1.6,779098.914977117,779098.914977117,779101.314842207,2.4,779103.320085167,779104.118128017,0.798042850103229,77,Shorter,Ring,78,L,Middle
226,Spatial,4132,1,2,43,800,2.5,3.33333333333333,1,l,l,-1600,-1200,-1600,-800,S,=,L,0.48925444863285,0.443869614802289,1.19320838737872,1.24227722749572,1.5643685917273,779105.753441726,779106.255099907,779106.255099907,779107.854982898,1.6,779109.075079209,779109.075079209,779111.474882384,2.4,779112.853500891,779113.430158803,0.576657912693918,77,Longer,Ring,77,L,Ring
226,Spatial,4132,1,2,44,400,2.5,5,2,l,l,-1600,-1200,-1600,-1200,L,S,=,0.251219360030717,0.412582253337192,1.84246402899881,1.55144061640872,1.3210712226018,779115.15348234,779115.414946962,779115.414946962,779117.014914644,1.6,779118.895196135,779118.895196135,779119.694983463,0.8,779121.386821319,779121.85409212,0.467270801309496,77,Equals to,Ring,78,S,Middle
226,Spatial,4132,1,2,45,1200,5,5,1,m,m,-800,0,-800,400,S,=,L,0.38915864002812,0.421263252262723,1.54218537165487,1.26387598390604,1.09953796795183,779123.320251614,779123.725320485,779123.725320485,779125.325170753,1.6,779126.895276336,779126.895276336,779129.295163561,2.4,779130.703620002,779131.534064698,0.830444695893675,77,Longer,Ring,77,L,Ring
226,Spatial,4132,1,2,46,800,15,5,1,r,r,0,1200,0,800,L,S,=,0.336475133293009,0.444113831031906,1.62302020340992,1.68175758439863,1.95846846073293,779132.786922243,779133.135461233,779133.135461233,779133.935342877,0.8,779135.59527563,779135.59527563,779137.19521444,1.6,779139.020309022,779139.542100151,0.521791128325276,78,Shorter,Middle,66,L,Index
226,Spatial,4132,1,2,47,400,5,5,2,r,r,0,400,0,400,=,L,S,0.440411718025503,0.341058900190674,1.44328133726133,1.88132241164119,1.26484013095771,779141.653705297,779142.105584287,779142.105584287,779142.90553394,0.8,779144.375579083,779144.375579083,779145.175442762,0.8,779147.203721794,779147.806060017,0.602338223019615,66,Equals to,Index,66,=,Index
226,Spatial,4132,1,2,48,400,5,5,2,r,r,0,400,0,400,L,S,=,0.284869076673667,0.417596986715887,1.07632749386694,1.75157259379848,1.10621057512907,779149.220364778,779149.515782459,779149.515782459,779150.315644533,0.8,779151.425809002,779151.425809002,779152.225664019,0.8,779154.120376519,779154.629933857,0.509557337965816,77,Equals to,Ring,77,=,Ring
226,Spatial,4132,1,2,49,400,3.33333333333333,1.25,2,l,l,-1600,-800,-1600,-1200,=,L,S,0.259023004221933,0.344138424723057,1.38785062011415,1.17017428429745,1.43353769264667,779182.120585041,779182.395932697,779182.395932697,779184.79601497,2.4,779186.206038992,779186.206038992,779189.406106572,3.2,779190.720633931,779191.206126295,0.485492363921367,77,Shorter,Ring,78,L,Middle
226,Spatial,4132,1,2,50,1600,5,5,2,l,l,-1600,-400,-1600,0,=,L,S,0.258921574242511,0.383664608125122,1.57146322962691,1.24607057610134,1.35205880639403,779192.787369442,779193.066291797,779193.066291797,779195.466131222,2.4,779197.076266819,779197.076266819,779200.27627473,3.2,779201.670701075,779202.102147578,0.431446503382176,78,Longer,Middle,66,=,Index
226,Spatial,4132,1,2,51,1200,10,5,1,l,l,-1600,0,-1600,-400,=,L,S,0.32610960613123,0.398231675260398,1.51792039668972,1.49368302999988,1.3530026088003,779203.604113133,779203.946401293,779203.946401293,779205.546265035,1.6,779207.086668508,779207.086668508,779209.48629043,2.4,779211.137482564,779212.59809328,1.46061071625445,77,Shorter,Ring,78,L,Middle
226,Spatial,4132,1,2,52,800,3.75,3.33333333333333,1,m,m,-800,400,-800,0,L,S,=,0.251212171187959,0.286637278629051,1.81034944126315,1.55437679797018,1.91548416572389,779214.104144251,779214.366573846,779214.366573846,779217.566555772,3.2,779219.416738642,779219.416738642,779221.816428895,2.4,779223.520832251,779223.974181842,0.453349591582082,78,Shorter,Middle,78,S,Middle
226,Spatial,4132,1,2,53,800,1.66666666666667,5,1,r,r,0,400,0,800,=,L,S,0.473844652771332,0.354107345618605,1.67202728112743,1.78586110484715,1.27375059229758,779226.03754861,779226.52700893,779226.52700893,779228.926556105,2.4,779230.626783856,779230.626783856,779232.226641503,1.6,779234.154303923,779234.590016444,0.435712521662936,78,Longer,Middle,66,=,Index
226,Spatial,4132,1,2,54,1600,15,20,2,r,r,0,1200,0,1600,=,L,S,0.461433835643879,0.425470132138479,1.36045401703972,1.55889771829883,1.67287585874186,779236.004319922,779236.477088586,779236.477088586,779237.276923071,0.8,779238.667007314,779238.667007314,779239.466840837,0.8,779241.170948734,779241.638226593,0.467277858871967,78,Longer,Middle,66,=,Index
226,Spatial,4132,1,2,55,400,2.5,1.25,2,m,m,-800,0,-800,-400,L,S,=,0.392346930040448,0.36314592182293,1.66995442750506,1.79831736347605,1.10538018438535,779243.471008467,779243.877299866,779243.877299866,779247.076841972,3.2,779248.776981823,779248.776981823,779251.977001283,3.2,779253.92091906,779255.054200808,1.13328174839262,78,Shorter,Middle,78,S,Middle
226,Spatial,4132,1,2,56,1600,6.66666666666667,5,2,r,r,0,1600,0,1600,S,=,L,0.433094825115491,0.235514529579903,1.69441333346782,1.02679733632931,1.08991341947896,779256.30445344,779256.757339748,779256.757339748,779259.157212858,2.4,779260.877386483,779260.877386483,779264.07722084,3.2,779265.254467651,779265.73418686,0.479719208320603,78,Equals to,Middle,78,=,Middle
226,Spatial,4132,1,2,57,800,1.25,3.33333333333333,1,l,l,-1600,-1200,-1600,-800,=,L,S,0.446769642547091,0.304392026129611,1.62704452939742,1.37622214959481,1.43536155674128,779266.971180738,779267.437713008,779267.437713008,779270.637262493,3.2,779272.297567377,779272.297567377,779274.697572336,2.4,779276.221176728,779276.70216118,0.480984451947734,78,Longer,Middle,66,=,Index
226,Spatial,4132,1,2,58,800,5,5,1,l,l,-1600,-400,-1600,-800,=,L,S,0.345704144206802,0.415072307544067,1.69685525335258,1.37180703036815,1.7648269661401,779278.287943357,779278.647470462,779278.647470462,779281.047516805,2.4,779282.767625628,779282.767625628,779284.367517601,1.6,779285.887904347,779286.390003356,0.502099008532241,77,Shorter,Ring,77,S,Ring
226,Spatial,4132,1,2,59,1600,20,20,2,r,r,0,1600,0,1600,S,=,L,0.225397689243317,0.246009028177879,1.46064885291603,1.08546851877605,1.73603749877422,779288.304650412,779288.547770284,779288.547770284,779289.347746885,0.8,779290.847729285,779290.847729285,779291.647723209,0.8,779292.888024112,779293.350249873,0.46222576033324,78,Equals to,Middle,78,=,Middle
226,Spatial,4132,1,2,60,1200,3.33333333333333,7.5,1,m,m,-800,0,-800,400,=,L,S,0.25958174599726,0.398677777395694,1.20607115421253,1.52550857834215,1.22691685587348,779295.238029107,779295.517903282,779295.517903282,779297.917779279,2.4,779299.157953314,779299.157953314,779300.757857799,1.6,779302.421391601,779302.926139794,0.504748192732222,78,Longer,Middle,77,S,Ring
226,Spatial,4132,1,2,61,1200,5,5,1,r,r,0,1600,0,1200,=,L,S,0.391449504558584,0.37698828152553,1.46310201142527,1.83566885146271,1.48426963761433,779304.304739916,779304.707866922,779304.707866922,779307.907934502,3.2,779309.398298613,779309.398298613,779311.798089597,2.4,779313.788150088,779314.206225743,0.418075655354187,77,Shorter,Ring,66,=,Index
226,Spatial,4132,1,2,62,1600,15,20,2,l,l,-1600,-400,-1600,0,L,S,=,0.444867236257846,0.321218223987013,1.34810542780322,1.78601295704071,1.58913130661889,779315.838165256,779316.298327678,779316.298327678,779317.098149652,0.8,779318.488285223,779318.488285223,779319.288080891,0.8,779321.22147347,779321.766202915,0.544729445129633,66,Longer,Index,77,=,Ring
226,Spatial,4132,1,2,63,800,5,5,1,l,l,-1600,-1200,-1600,-800,L,S,=,0.270347882855032,0.303325265993892,1.13596896403492,1.87099506123773,1.36528700747094,779323.504872022,779323.788417778,779323.788417778,779324.588338238,0.8,779325.758317232,779325.758317232,779327.358342338,1.6,779329.371588659,779329.926172516,0.554583856835961,66,Longer,Index,66,L,Index
226,Spatial,4132,1,2,64,800,7.5,3.33333333333333,1,r,r,0,1200,0,800,S,=,L,0.249968394564788,0.227005830447401,1.5888323064906,1.08712190033552,1.56095544077471,779331.438269324,779331.708404266,779331.708404266,779333.308268008,1.6,779334.928675369,779334.928675369,779337.328534685,2.4,779338.554946352,779339.093973218,0.539026865852065,66,Shorter,Index,77,L,Ring
226,Spatial,4132,1,2,65,400,5,5,2,m,m,-800,0,-800,-400,=,L,S,0.371100543338575,0.220091848693936,1.12095537009213,1.23042633648553,1.10776282743165,779340.805024049,779341.188437219,779341.188437219,779342.788404901,1.6,779343.938523675,779343.938523675,779344.738365539,0.8,779346.121695715,779346.606153755,0.484458040213212,77,Shorter,Ring,77,S,Ring
226,Spatial,4132,1,2,66,1200,2.5,5,1,r,r,0,800,0,1200,L,S,=,0.323075846850666,0.469173877862118,1.60427423543987,1.24952464990809,1.6080251006008,779347.855058056,779348.188828277,779348.188828277,779351.388474643,3.2,779353.0286524,779353.0286524,779355.428560798,2.4,779356.821720616,779357.318168053,0.496447436860763,66,Longer,Index,77,=,Ring
226,Spatial,4132,1,2,67,1600,3.75,5,2,l,l,-1600,-400,-1600,0,S,=,L,0.256434279683558,0.467721944496137,1.93953465993262,1.81880024538088,1.69537056728016,779359.088417887,779359.35901703,779359.35901703,779362.558893733,3.2,779364.528778796,779364.528778796,779367.728709073,3.2,779369.688493725,779370.238173468,0.54967974324245,77,Longer,Ring,78,=,Middle
226,Spatial,4132,1,2,68,400,2.5,1.25,2,l,l,-1600,-800,-1600,-1200,=,L,S,0.289382999902638,0.338172462123391,1.73329052797486,1.30392702532435,1.58036348540371,779372.088553266,779372.388943701,779372.388943701,779375.588852164,3.2,779377.349111943,779377.349111943,779380.549127232,3.2,779382.005209185,779382.470327083,0.465117898071185,77,Shorter,Ring,78,L,Middle
226,Spatial,4132,1,2,69,400,1.66666666666667,1.25,2,r,r,0,400,0,400,=,L,S,0.457085772829879,0.369650494474487,1.78984333563499,1.1754030079957,1.75599207901487,779384.221972862,779384.699293164,779384.699293164,779387.099167236,2.4,779388.929286818,779388.929286818,779392.129348945,3.2,779393.438686375,779394.174155472,0.735469096922316,66,Equals to,Index,78,L,Middle
226,Spatial,4132,1,2,70,400,5,5,2,m,m,-800,0,-800,-400,L,S,=,0.355005315784297,0.306244492829688,1.46379130800326,1.28668539920982,1.60790418163061,779396.072043503,779396.439511104,779396.439511104,779398.039355598,1.6,779399.529253262,779399.529253262,779400.329314234,0.8,779401.755338629,779402.118223937,0.362885307520628,78,Shorter,Middle,78,S,Middle
226,Spatial,4132,1,2,71,800,1.66666666666667,5,1,l,l,-1600,-1200,-1600,-800,L,S,=,0.452390056029129,0.418075493572495,1.11491299575623,1.15463788299208,1.57254634485414,779403.872086876,779404.339514184,779404.339514184,779406.739340136,2.4,779407.889590759,779407.889590759,779409.489527644,1.6,779410.788798575,779411.150255711,0.361457136110403,66,Longer,Index,78,S,Middle
226,Spatial,4132,1,2,72,1200,5,5,1,l,l,-1600,0,-1600,-400,=,L,S,0.414189461165514,0.435408306912622,1.76301063260033,1.66411268210035,1.88648623286288,779412.872157404,779413.299690445,779413.299690445,779416.499562657,3.2,779418.29991212,779418.29991212,779420.699534362,2.4,779422.522150747,779423.014128769,0.491978021222167,77,Shorter,Ring,66,=,Index
226,Spatial,4132,1,2,73,1200,10,7.5,1,m,m,-800,0,-800,400,L,S,=,0.227379546552849,0.440081206899138,1.7033212200445,1.89408150706716,1.50724099768698,779441.289004891,779441.530253203,779441.530253203,779442.330144149,0.8,779444.060192706,779444.060192706,779445.660100719,1.6,779447.705705674,779448.158213209,0.452507534646429,66,Longer,Index,66,L,Index
226,Spatial,4132,1,2,74,1600,5,5,2,l,l,-1600,0,-1600,0,=,L,S,0.253947329304258,0.204058225974965,1.40386165076805,1.69688290556058,1.95805277876842,779449.822345539,779450.090174876,779450.090174876,779453.290034897,3.2,779454.720345164,779454.720345164,779457.920286027,3.2,779459.77243518,779460.486531121,0.714095940929838,66,Equals to,Index,66,=,Index
226,Spatial,4132,1,2,75,1200,5,5,1,r,r,0,1600,0,1200,S,=,L,0.448312718876862,0.360854190490544,1.73027638859177,1.5552333044844,1.10241983328624,779462.589090943,779463.050326115,779463.050326115,779466.250340762,3.2,779468.020486702,779468.020486702,779470.420520854,2.4,779472.122466545,779472.53418147,0.411714924848638,66,Shorter,Index,78,=,Middle
226,Spatial,4132,1,2,76,1200,2.5,5,1,m,m,-800,0,-800,400,L,S,=,0.324253748293022,0.382576346198763,1.38812749585122,1.6502134599391,1.95106450677376,779473.789214375,779474.130542695,779474.130542695,779477.330505693,3.2,779478.740727329,779478.740727329,779481.140417261,2.4,779482.939225956,779483.950266041,1.01104008546099,66,Longer,Index,78,S,Middle
226,Spatial,4132,1,2,77,400,10,5,2,m,m,-800,0,-800,-400,S,=,L,0.490634625250089,0.390066737302546,1.88247105638899,1.84934164513985,1.40013512027956,779486.055932177,779486.560640225,779486.560640225,779487.360655322,0.8,779489.270826912,779489.270826912,779490.070667493,0.8,779492.07266545,779492.534134633,0.461469182861038,66,Shorter,Index,66,S,Index
226,Spatial,4132,1,2,78,800,5,5,1,l,l,-1600,-1200,-1600,-800,S,=,L,0.241082647628463,0.292218481660549,1.74998871919207,1.34029904088236,1.69509413688163,779494.089323191,779494.340725212,779494.340725212,779495.140716569,0.8,779496.921019747,779496.921019747,779498.520886697,1.6,779500.00598296,779500.662245371,0.65626241103746,77,Longer,Ring,77,L,Ring
226,Spatial,4132,1,2,79,1200,5,5,1,m,m,-800,0,-800,400,=,L,S,0.441451784541742,0.437164844826841,1.12371194157605,1.72897968576006,1.19943583390587,779502.522743269,779502.980983765,779502.980983765,779504.580834034,1.6,779505.731269119,779505.731269119,779508.131092505,2.4,779510.006105739,779510.518294064,0.512188325054012,78,Longer,Middle,78,L,Middle
226,Spatial,4132,1,2,80,1200,2.5,5,1,r,r,0,800,0,1200,=,L,S,0.345440215903993,0.247147768870353,1.88135822536267,1.5504729081057,1.44716422226684,779511.872799377,779512.231338733,779512.231338733,779515.431204529,3.2,779517.331002661,779517.331002661,779519.731022698,2.4,779521.422787091,779521.822326932,0.399539841455407,78,Longer,Middle,66,=,Index
226,Spatial,4132,1,2,81,800,5,5,1,m,m,-800,400,-800,0,S,=,L,0.281060124414969,0.405257638027419,1.74515711806229,1.84637489046635,1.69677351441864,779523.422849968,779523.721266508,779523.721266508,779526.121326324,2.4,779527.901436379,779527.901436379,779529.501400532,1.6,779531.506247806,779531.950267966,0.444020160357468,66,Shorter,Index,66,S,Index
226,Spatial,4132,1,2,82,400,10,5,2,r,r,0,800,0,400,=,L,S,0.40265164048079,0.441213555281223,1.06563878315335,1.00869259234687,1.49343981233796,779533.789608483,779534.21146119,779534.21146119,779535.011374913,0.8,779536.101556615,779536.101556615,779536.901464244,0.8,779538.056249771,779538.542295198,0.486045426921919,77,Shorter,Ring,66,=,Index
226,Spatial,4132,1,2,83,800,5,5,1,m,m,-800,400,-800,0,S,=,L,0.212525257756565,0.418130896143366,1.25837499040678,1.94440227184345,1.6722011908316,779540.172978449,779540.401841231,779540.401841231,779542.801374932,2.4,779544.101595433,779544.101595433,779545.701460138,1.6,779547.806297411,779548.206282204,0.399984793970361,66,Shorter,Index,66,S,Index
226,Spatial,4132,1,2,84,800,1.25,3.33333333333333,1,r,r,0,400,0,800,L,S,=,0.295093135621074,0.458784826463578,1.41167592329656,1.03541711174761,1.71731366873534,779550.02305573,779550.331813649,779550.331813649,779553.531789479,3.2,779554.961943516,779554.961943516,779557.361825608,2.4,779558.539707287,779559.110292424,0.570585136651061,66,Longer,Index,77,=,Ring
226,Spatial,4132,1,2,85,1200,10,7.5,1,r,r,0,800,0,1200,S,=,L,0.316237624200539,0.485934038217611,1.10793369400267,1.33078493155576,1.68422230596345,779560.97308117,779561.301854577,779561.301854577,779562.10177247,0.8,779563.242118648,779563.242118648,779564.84195833,1.6,779566.323149283,779566.766306213,0.443156930501573,77,Longer,Ring,77,L,Ring
226,Spatial,4132,1,2,86,1200,2.5,5,1,m,m,-800,0,-800,400,=,L,S,0.332638657154967,0.304634017326918,1.96776967549853,1.85240020703914,1.92806817027821,779568.606496051,779568.952236684,779568.952236684,779572.152041848,3.2,779574.152019116,779574.152019116,779576.55186207,2.4,779578.556503526,779578.950395325,0.393891798565164,78,Longer,Middle,78,L,Middle
226,Spatial,4132,1,2,87,800,7.5,3.33333333333333,1,l,l,-1600,-400,-1600,-800,=,L,S,0.242329622459898,0.4395340837522,1.5404339446206,1.03832160122447,1.62939103905238,779581.039892711,779581.302341554,779581.302341554,779582.902215562,1.6,779584.482290072,779584.482290072,779586.882133347,2.4,779588.05662892,779588.934191607,0.877562687732279,77,Shorter,Ring,77,S,Ring
226,Spatial,4132,1,2,88,1200,6.66666666666667,7.5,1,l,l,-1600,0,-1600,-400,L,S,=,0.30696264105684,0.333528611499729,1.88269660652316,1.57046399695263,1.26592367978965,779590.723306534,779591.042632958,779591.042632958,779593.442408865,2.4,779595.352539072,779595.352539072,779596.952473712,1.6,779598.673295722,779599.030375152,0.35707943001762,78,Shorter,Middle,78,S,Middle
226,Spatial,4132,1,2,89,1200,10,5,1,m,m,-800,800,-800,400,=,L,S,0.203966956600377,0.31775595862601,1.23381059435144,1.0459892942694,1.5355488216775,779600.456668932,779600.672607557,779600.672607557,779602.272485736,1.6,779603.542541529,779603.542541529,779605.942433246,2.4,779607.140080099,779607.710420552,0.570340453297831,77,Shorter,Ring,66,=,Index
226,Spatial,4132,1,2,90,1200,6.66666666666667,7.5,1,m,m,-800,800,-800,400,S,=,L,0.354636338492407,0.294009314365837,1.69853871541011,1.43370990608585,1.08163164020896,779609.390107937,779609.762669234,779609.762669234,779612.162508018,2.4,779613.882807077,779613.882807077,779615.482671782,1.6,779617.056754072,779617.502391901,0.445637828437611,66,Shorter,Index,66,S,Index
226,Spatial,4132,1,2,91,1200,5,5,1,m,m,-800,0,-800,400,=,L,S,0.290442942832773,0.340334404209974,1.69736257887048,1.87559602955191,1.5833932197938,779618.740128436,779619.042998993,779619.042998993,779620.642851829,1.6,779622.372832375,779622.372832375,779624.772743019,2.4,779626.790212058,779627.28640094,0.496188881457783,78,Longer,Middle,78,L,Middle
226,Spatial,4132,1,2,92,1200,6.66666666666667,7.5,1,m,m,-800,800,-800,400,S,=,L,0.484552922765073,0.43172654079965,1.26128771251155,1.606221294595,1.55660513225221,779629.023574468,779629.523151285,779629.523151285,779631.922982049,2.4,779633.213230414,779633.213230414,779634.812758276,1.6,779636.556888488,779636.926282551,0.369394062552601,66,Shorter,Index,78,=,Middle
226,Spatial,4132,1,2,93,1600,3.75,5,2,l,l,-1600,-400,-1600,0,L,S,=,0.250578799302482,0.474183026360724,1.79771494710878,1.1451766822513,1.27386378928189,779638.640289351,779638.903153633,779638.903153633,779642.103173734,3.2,779643.933403352,779643.933403352,779647.132949308,3.2,779648.440326628,779649.006348995,0.566022367565893,66,Longer,Index,77,=,Ring
226,Spatial,4132,1,2,94,800,1.66666666666667,5,1,l,l,-1600,-1200,-1600,-800,S,=,L,0.48136775058409,0.277678613902001,1.7829699309777,1.14145032744338,1.58058157957252,779650.423726079,779650.923249963,779650.923249963,779653.323114732,2.4,779655.143465889,779655.143465889,779656.743381601,1.6,779658.023686427,779658.518272891,0.494586463551968,77,Longer,Ring,66,S,Index
226,Spatial,4132,1,2,95,1200,10,5,1,l,l,-1600,0,-1600,-400,L,S,=,0.207938409297917,0.437528472112543,1.126419039447,1.19684187482357,1.24095150682578,779660.257068074,779660.483438223,779660.483438223,779662.083338537,1.6,779663.233502544,779663.233502544,779665.633418962,2.4,779666.973809769,779667.494370243,0.52056047366932,78,Shorter,Middle,66,L,Index
226,Spatial,4132,1,2,96,1200,20,7.5,1,r,r,0,1600,0,1200,S,=,L,0.496853808085522,0.350951269474221,1.05143049526201,1.11545307068275,1.13290880336951,779668.873833964,779669.383562566,779669.383562566,779670.183578304,0.8,779671.253661751,779671.253661751,779672.853495659,1.6,779674.123815839,779674.622334695,0.498518856358714,66,Shorter,Index,77,L,Ring
