Subject,Task,SequenceOrder,ListNo,RunNo,TrialNo,Aud_Probe_Dist,Aud_Standard_Vel,Aud_Probe_Vel,Main_Control,Aud_Std_StartCode,Aud_Probe_StartCode,Aud_Std_StartPt,Aud_Std_EndPt,Aud_Probe_StartPt,Aud_Probe_EndPt,RespIndex,RespMiddle,RespRing,ISI_Cross_Std,ISI_Cross_Probe,ISI_Std_Probe,ISI_Probe_Response,ITI,TrialOnset,StdOnset,StdOnsetByStop,StdOffset,StdDur,ProbeOnset,ProbeOnsetByStop,ProbeOffset,ProbeDur,RespWinStart,RespTime,RT,CorrectKC,CorrectResponse,CorrectFinger,SubjRespKC,SubjResponse,SubjRespFinger
222,Spatial,3421,1,4,1,1200,10,5,1,l,l,-1600,0,-1600,-400,S,=,L,0.330822797738049,0.289798416043915,1.10762620642639,1.88288404557412,1.65232884999981,279059.990331344,279060.332156907,279060.332156907,279061.931157692,1.6,279063.061276376,279063.061276376,279065.461248934,2.4,279067.490394391,279067.925525779,0.435131387494039,66,Shorter,Index,66,S,Index
222,Spatial,3421,1,4,2,400,5,5,2,r,r,0,400,0,400,L,S,=,0.216691642025792,0.317557961600186,1.76263677905219,1.78927024949041,1.26403615752321,279069.723772338,279069.951697736,279069.951697736,279070.751270768,0.8,279072.551632742,279072.551632742,279073.351472681,0.8,279075.290411929,279075.717441949,0.427030020044185,77,Equals to,Ring,77,=,Ring
222,Spatial,3421,1,4,3,800,2.5,3.33333333333333,1,l,l,-1600,-1200,-1600,-800,L,S,=,0.358075525857394,0.306939422804522,1.77104413228235,1.37198285447224,1.7004194101259,279077.140453922,279077.511584763,279077.511584763,279079.111579072,1.6,279080.911615431,279080.911615431,279083.311646055,2.4,279084.823800697,279086.12548786,1.30168716271874,66,Longer,Index,77,=,Ring
222,Spatial,3421,1,4,4,1200,2.5,5,1,r,r,0,800,0,1200,=,L,S,0.449492747106804,0.419966945351476,1.04928173912185,1.0199640670207,1.1157440198274,279087.973913331,279088.441835316,279088.441835316,279091.64171266,3.2,279092.721863521,279092.721863521,279095.12176454,2.4,279096.290569122,279096.821511774,0.530942651443183,78,Longer,Middle,66,=,Index
222,Spatial,3421,1,4,5,1200,6.66666666666667,7.5,1,m,m,-800,800,-800,400,L,S,=,0.208062110194799,0.454297123915909,1.54331005559462,1.58443620859712,1.45278351196211,279098.090582339,279098.312084316,279098.312084316,279100.711974749,2.4,279102.281917364,279102.281917364,279103.881703793,1.6,279105.607278167,279107.101341081,1.49406291445484,78,Shorter,Middle,78,S,Middle
222,Spatial,3421,1,4,6,800,2.5,3.33333333333333,1,r,r,0,400,0,800,S,=,L,0.415044076089524,0.459183829589457,1.90427064192885,1.78294959116458,1.07965704369079,279108.707361704,279109.141791943,279109.141791943,279110.741842713,1.6,279112.672277131,279112.672277131,279115.072202211,2.4,279117.007332575,279117.453434604,0.446102029178292,77,Longer,Ring,78,=,Middle
222,Spatial,3421,1,4,7,400,1.66666666666667,1.25,2,m,m,-800,-400,-800,-400,=,L,S,0.454299096966213,0.468286794104671,1.2340971688893,1.10098877519928,1.69615565232197,279118.690715601,279119.162146519,279119.162146519,279121.562055559,2.4,279122.822491779,279122.822491779,279126.022330628,3.2,279127.274068663,279127.669533355,0.395464691566303,66,Equals to,Index,78,L,Middle
222,Spatial,3421,1,4,8,1600,7.5,20,2,r,r,0,1200,0,1600,=,L,S,0.334348521342657,0.356207304259304,1.50468326424124,1.0908625514327,1.88561088537244,279129.507484635,279129.852587513,279129.852587513,279131.452190123,1.6,279132.992245205,279132.992245205,279133.792262226,0.8,279135.024126247,279136.821612506,1.79748625843786,78,Longer,Middle,77,S,Ring
222,Spatial,3421,1,4,9,800,3.75,3.33333333333333,1,m,m,-800,400,-800,0,=,L,S,0.201769304582534,0.416271897145323,1.2807970438229,1.75971832000627,1.24970613467298,279138.857548443,279139.07269597,279139.07269597,279142.272597696,3.2,279143.582711734,279143.582711734,279145.982588052,2.4,279147.874219569,279148.301322411,0.427102842077147,77,Shorter,Ring,78,L,Middle
222,Spatial,3421,1,4,10,800,5,5,1,r,r,0,400,0,800,=,L,S,0.28865887732552,0.244536214183165,1.51584594799291,1.42194666691662,1.99277278881127,279149.707592361,279150.01277558,279150.01277558,279150.812679038,0.8,279152.352824586,279152.352824586,279153.952702444,1.6,279155.524233074,279157.045535621,1.52130254654912,78,Longer,Middle,77,S,Ring
222,Spatial,3421,1,4,11,1600,5,5,2,r,r,0,1600,0,1600,S,=,L,0.23388633303077,0.395030230846668,1.87257038142233,1.88461977595964,1.01225783431331,279159.207635348,279159.452795201,279159.452795201,279162.652707512,3.2,279164.563007103,279164.563007103,279167.7629454,3.2,279169.790986165,279170.181502804,0.390516639046837,78,Equals to,Middle,78,=,Middle
222,Spatial,3421,1,4,12,1600,15,20,2,l,l,-1600,-400,-1600,0,=,L,S,0.294075859989065,0.471462382672896,1.91253688325363,1.96288102444537,1.58623958485412,279171.34107044,279171.652767227,279171.652767227,279172.452760188,0.8,279174.403032049,279174.403032049,279175.202820018,0.8,279177.324392256,279177.701553901,0.377161645155866,78,Longer,Middle,78,L,Middle
222,Spatial,3421,1,4,13,800,1.25,3.33333333333333,1,r,r,0,400,0,800,L,S,=,0.235434110900141,0.256370433437164,1.42659318162328,1.86685115333542,1.9263750020852,279179.441134087,279179.69304875,279179.69304875,279182.892918395,3.2,279184.353182601,279184.353182601,279186.753132383,2.4,279188.774441115,279189.117488658,0.343047543545254,66,Longer,Index,77,=,Ring
222,Spatial,3421,1,4,14,1200,20,7.5,1,l,l,-1600,0,-1600,-400,S,=,L,0.358315762007662,0.202625331272115,1.30529276561068,1.85140295879787,1.37812170674657,279191.207814676,279191.583096376,279191.583096376,279192.383073298,0.8,279193.713340128,279193.713340128,279195.313246537,1.6,279197.307873832,279199.901647832,2.59377400000812,66,Shorter,Index,66,S,Index
222,Spatial,3421,1,4,15,800,5,5,1,l,l,-1600,-1200,-1600,-800,=,L,S,0.47503698452135,0.234608091303399,1.13473975197112,1.34517904937328,1.10267995983266,279201.424534179,279201.913514901,279201.913514901,279202.713302549,0.8,279203.873531082,279203.873531082,279205.473386484,1.6,279206.9746088,279209.38150274,2.40689394017681,78,Longer,Middle,77,S,Ring
222,Spatial,3421,1,4,16,800,1.66666666666667,5,1,l,l,-1600,-1200,-1600,-800,=,L,S,0.365346968095027,0.499949101685349,1.56570146418933,1.26710188090024,1.56714977402923,279210.641298594,279211.023489089,279211.023489089,279213.42331472,2.4,279215.023764658,279215.023764658,279216.623547559,1.6,279218.041278897,279218.749501634,0.708222736837342,78,Longer,Middle,77,S,Ring
222,Spatial,3421,1,4,17,1200,5,5,1,m,m,-800,800,-800,400,S,=,L,0.334287913157075,0.371207700112308,1.28554428877846,1.57082825541599,1.04537431387594,279220.47470475,279220.823652762,279220.823652762,279224.023649125,3.2,279225.343858486,279225.343858486,279227.74375694,2.4,279229.45807209,279229.805572077,0.347499986819457,66,Shorter,Index,78,=,Middle
222,Spatial,3421,1,4,18,800,3.75,3.33333333333333,1,r,r,0,1200,0,800,=,L,S,0.436936321317166,0.342268199087037,1.99382570757169,1.90687453095725,1.84013422015683,279231.008036415,279231.463742253,279231.463742253,279234.663817854,3.2,279236.683837557,279236.683837557,279239.083881334,2.4,279241.12475611,279242.301552747,1.17679663648596,77,Shorter,Ring,77,S,Ring
222,Spatial,3421,1,4,19,1600,6.66666666666667,5,2,r,r,0,1600,0,1600,L,S,=,0.455688447634482,0.338310181653097,1.18921560007326,1.16586676511564,1.25903394567412,279244.291515489,279244.764074027,279244.764074027,279247.163869824,2.4,279248.384056922,279248.384056922,279251.58391983,3.2,279252.891562616,279253.365532246,0.473969630198553,77,Equals to,Ring,77,=,Ring
222,Spatial,3421,1,4,20,1600,20,20,2,r,r,0,1600,0,1600,L,S,=,0.25881014158792,0.231952519846723,1.1266464366986,1.59377125643922,1.88198982776412,279254.774914619,279255.044255255,279255.044255255,279255.844203945,0.8,279257.004381792,279257.004381792,279257.803963164,0.8,279259.558246444,279259.909522242,0.351275798107963,77,Equals to,Ring,77,=,Ring
222,Spatial,3421,1,4,21,1200,10,7.5,1,m,m,-800,0,-800,400,L,S,=,0.393355115794088,0.340720933855817,1.87168197846063,1.67308084980806,1.65391592961184,279261.941576152,279262.354292577,279262.354292577,279263.154131553,0.8,279265.064407084,279265.064407084,279266.664324721,1.6,279268.474981026,279268.917385745,0.442404718487524,66,Longer,Index,66,L,Index
222,Spatial,3421,1,4,22,1200,20,7.5,1,r,r,0,1600,0,1200,S,=,L,0.31172269091408,0.276707959308867,1.60770193354112,1.97897229305641,1.17408558150365,279270.725020579,279271.054650849,279271.054650849,279271.854500732,0.8,279273.494595722,279273.494595722,279275.09450566,1.6,279277.224970534,279278.877406096,1.6524355620495,66,Shorter,Index,77,L,Ring
222,Spatial,3421,1,4,23,1600,5,5,2,l,l,-1600,0,-1600,0,S,=,L,0.270471474534206,0.285904950198347,1.94713210591853,1.79029920290081,1.5901001347517,279280.191737997,279280.47437492,279280.47437492,279283.674402079,3.2,279285.654727007,279285.654727007,279288.854713745,3.2,279290.791721123,279291.141665913,0.349944789952133,78,Equals to,Middle,66,S,Index
222,Spatial,3421,1,4,24,800,7.5,3.33333333333333,1,l,l,-1600,-400,-1600,-800,=,L,S,0.298735731005772,0.258245099801448,1.30996878688599,1.44564284860034,1.75109586593217,279292.875119739,279293.184764034,279293.184764034,279294.784724338,1.6,279296.114969033,279296.114969033,279298.514577481,2.4,279300.108068623,279300.461604473,0.3535358493682,77,Shorter,Ring,78,L,Middle
222,Spatial,3421,1,4,25,1200,5,5,1,r,r,0,1600,0,1200,=,L,S,0.233613632463362,0.236051882344878,1.13891914146625,1.12205284709504,1.2401102854977,279301.808559387,279302.054982237,279302.054982237,279305.254873055,3.2,279306.424955989,279306.424955989,279308.824940417,2.4,279310.091836676,279311.685542987,1.59370631078491,77,Shorter,Ring,66,=,Index
222,Spatial,3421,1,4,26,400,2.5,5,2,l,l,-1600,-1200,-1600,-1200,L,S,=,0.202755961229426,0.267819908968568,1.09365510166258,1.68451049477576,1.63112337850451,279313.075266282,279313.295166814,279313.295166814,279314.895066807,1.6,279316.01530318,279316.01530318,279316.814861455,0.8,279318.641909722,279319.597396498,0.955486775608733,77,Equals to,Ring,77,=,Ring
222,Spatial,3421,1,4,27,800,1.25,3.33333333333333,1,l,l,-1600,-1200,-1600,-800,L,S,=,0.27963408900128,0.206130600062212,1.41256234765589,1.6657513351073,1.92991982380218,279321.391983667,279321.684959402,279321.684959402,279324.88499009,3.2,279326.315197059,279326.315197059,279328.715199132,2.4,279330.525352596,279331.709540592,1.18418799631763,66,Longer,Index,77,=,Ring
222,Spatial,3421,1,4,28,800,1.25,3.33333333333333,1,r,r,0,400,0,800,L,S,=,0.466683903844577,0.343655326765782,1.11613160022607,1.35419357720896,1.17598883479683,279333.808714334,279334.295418002,279334.295418002,279337.495303687,3.2,279338.635306927,279338.635306927,279341.035348779,2.4,279342.542033103,279343.029591754,0.487558650667779,66,Longer,Index,77,=,Ring
222,Spatial,3421,1,4,29,800,1.25,3.33333333333333,1,r,r,0,400,0,800,=,L,S,0.31349389822492,0.461201118609615,1.08260622655614,1.33793403433787,1.57734821406486,279344.375409745,279344.705488174,279344.705488174,279347.905507313,3.2,279349.025487687,279349.025487687,279351.425325829,2.4,279352.908824563,279353.901515983,0.992691419378389,78,Longer,Middle,66,=,Index
222,Spatial,3421,1,4,30,400,1.66666666666667,1.25,2,r,r,0,400,0,400,=,L,S,0.382455075147084,0.354204172075088,1.9551572466062,1.3909454638616,1.39858900207759,279355.642143908,279356.03565102,279356.03565102,279358.435540491,2.4,279360.425810285,279360.425810285,279363.625720352,3.2,279365.15883364,279365.55759297,0.398759329749737,66,Equals to,Index,66,=,Index
222,Spatial,3421,1,4,31,1200,5,5,1,r,r,0,1600,0,1200,L,S,=,0.261071530769418,0.249258253835499,1.96689991061389,1.56101388291704,1.19677183313984,279367.108930571,279367.385628532,279367.385628532,279370.585613986,3.2,279372.596014117,279372.596014117,279374.995920911,2.4,279376.708906045,279377.213592003,0.504685957101174,78,Shorter,Middle,77,=,Ring
222,Spatial,3421,1,4,32,1200,5,5,1,l,l,-1600,0,-1600,-400,=,L,S,0.229923118906861,0.495556092596413,1.40930454043625,1.42655376539062,1.47022389447643,279378.59233424,279378.835828808,279378.835828808,279382.035859817,3.2,279383.485897492,279383.485897492,279385.885955705,2.4,279387.475641171,279387.885441549,0.409800377674401,77,Shorter,Ring,77,S,Ring
222,Spatial,3421,1,4,33,1600,7.5,20,2,m,m,-800,400,-800,800,=,L,S,0.376446496424412,0.258809566072351,1.96610319359091,1.5089605804006,1.87235358053196,279389.509059774,279389.896350061,279389.896350061,279391.495934384,1.6,279393.486325121,279393.486325121,279394.286173081,0.8,279395.942423409,279396.341535282,0.399111873470247,78,Longer,Middle,77,S,Ring
222,Spatial,3421,1,4,34,800,1.66666666666667,5,1,r,r,0,400,0,800,=,L,S,0.341022157829763,0.477118307676796,1.92287250319887,1.85788015708615,1.06520534342252,279398.35912294,279398.716477252,279398.716477252,279401.116029881,2.4,279403.066314253,279403.066314253,279404.666172542,1.6,279406.65908932,279407.445607994,0.786518674227409,78,Longer,Middle,78,L,Middle
222,Spatial,3421,1,4,35,800,7.5,3.33333333333333,1,r,r,0,1200,0,800,S,=,L,0.466791037849198,0.290081581037079,1.91909946349244,1.48559894130465,1.73246562764819,279408.659144818,279409.136444813,279409.136444813,279410.736324275,1.6,279412.696537152,279412.696537152,279415.096463515,2.4,279416.725875664,279417.133619874,0.407744209922384,66,Shorter,Index,78,=,Middle
222,Spatial,3421,1,4,36,800,15,5,1,m,m,-800,400,-800,0,S,=,L,0.377687366740102,0.230133144508607,1.83066247538513,1.01161342754199,1.96541801275824,279419.025864995,279419.41658979,279419.41658979,279420.216434861,0.8,279422.0766752,279422.0766752,279423.67649788,1.6,279424.842555433,279425.429457851,0.586902417766396,66,Shorter,Index,66,S,Index
222,Spatial,3421,1,4,37,400,3.33333333333333,1.25,2,r,r,0,800,0,400,L,S,=,0.497538449752539,0.210575365870098,1.1636426176347,1.09598542217855,1.87444567803547,279427.542631078,279428.056749215,279428.056749215,279430.456667879,2.4,279431.656930918,279431.656930918,279434.856794468,3.2,279436.109328383,279436.525778058,0.416449674114119,78,Shorter,Middle,77,=,Ring
222,Spatial,3421,1,4,38,800,5,5,1,m,m,-800,400,-800,0,S,=,L,0.260862710805862,0.458894621014984,1.01596649620002,1.95121748284464,1.21808477268366,279438.542691389,279438.816966604,279438.816966604,279441.21680218,2.4,279442.256898645,279442.256898645,279443.856777786,1.6,279445.95935565,279446.33347192,0.374116270279046,66,Shorter,Index,66,S,Index
222,Spatial,3421,1,4,39,800,2.5,3.33333333333333,1,r,r,0,400,0,800,S,=,L,0.276163985237641,0.493267588821489,1.53401231757988,1.06904612411749,1.66539041487198,279447.70941997,279447.997243302,279447.997243302,279449.597068869,1.6,279451.157142968,279451.157142968,279453.557037572,2.4,279454.775964604,279455.109652424,0.333687819715124,77,Longer,Ring,78,=,Middle
222,Spatial,3421,1,4,40,800,3.75,3.33333333333333,1,m,m,-800,400,-800,0,L,S,=,0.24014467795062,0.244975091319922,1.42897520628088,1.9309207544396,1.82645241475708,279456.926140436,279457.177085955,279457.177085955,279460.377021365,3.2,279461.837291987,279461.837291987,279464.237150019,2.4,279466.326140307,279466.709640041,0.383499733405188,78,Shorter,Middle,78,S,Middle
222,Spatial,3421,1,4,41,800,15,5,1,m,m,-800,400,-800,0,=,L,S,0.443123275003635,0.377614576580167,1.34218162194875,1.80142951456374,1.43993030851779,279468.676216305,279469.137526878,279469.137526878,279469.937098627,0.8,279471.31732911,279471.31732911,279472.917202156,1.6,279474.859509827,279475.253494337,0.393984510388691,77,Shorter,Ring,77,S,Ring
222,Spatial,3421,1,4,42,1200,2.5,5,1,m,m,-800,0,-800,400,S,=,L,0.246645634656352,0.408295246217586,1.34298564520781,1.68131072998984,1.15776171169149,279476.842937188,279477.107690674,279477.107690674,279480.307229572,3.2,279481.687726,279481.687726,279484.087233075,2.4,279485.926256245,279486.677523895,0.751267649699003,77,Longer,Ring,66,S,Index
222,Spatial,3421,1,4,43,800,5,5,1,l,l,-1600,-400,-1600,-800,L,S,=,0.489462525098472,0.235661355570851,1.98600341044704,1.52675047240441,1.17753142165451,279487.976335066,279488.477566581,279488.477566581,279490.877463751,2.4,279492.897692297,279492.897692297,279494.497498616,1.6,279496.17637095,279496.573611584,0.397240634483751,78,Shorter,Middle,77,=,Ring
222,Spatial,3421,1,4,44,1200,5,5,1,m,m,-800,0,-800,400,L,S,=,0.354163540862787,0.200164002224858,1.95831570248719,1.30346633315809,1.82897492445939,279497.893051297,279498.257699688,279498.257699688,279499.857574338,1.6,279501.847806599,279501.847806599,279504.247773383,2.4,279505.693026338,279506.165655498,0.472629159805365,66,Longer,Index,66,L,Index
222,Spatial,3421,1,4,45,800,2.5,3.33333333333333,1,m,m,-800,-400,-800,0,L,S,=,0.306030806557019,0.46841749772509,1.49378002693499,1.60884482684947,1.60924187572016,279508.15973734,279508.477695543,279508.477695543,279510.077676058,1.6,279511.597993787,279511.597993787,279513.997863047,2.4,279515.743149994,279516.17358669,0.430436696275137,66,Longer,Index,66,L,Index
222,Spatial,3421,1,4,46,400,10,5,2,r,r,0,800,0,400,=,L,S,0.372134434048805,0.269717381113564,1.15226469008851,1.35992441302205,1.82155144195409,279517.926513801,279518.318026213,279518.318026213,279519.11804131,0.8,279520.297791296,279520.297791296,279521.097815697,0.8,279522.609815712,279523.10973102,0.499915308260825,77,Shorter,Ring,66,=,Index
222,Spatial,3421,1,4,47,400,2.5,5,2,l,l,-1600,-1200,-1600,-1200,L,S,=,0.475444385927943,0.388235948572597,1.05650679437651,1.12915461185903,1.18719485291195,279525.076550453,279525.568046264,279525.568046264,279527.168073936,1.6,279528.24815839,279528.24815839,279529.04813467,0.8,279530.326576568,279530.901510529,0.574933960917406,77,Equals to,Ring,77,=,Ring
222,Spatial,3421,1,4,48,400,1.25,1.25,2,l,l,-1600,-1200,-1600,-1200,=,L,S,0.4040121628421,0.294124868828571,1.331445609107,1.92966373681578,1.98756865958893,279532.243261984,279532.658164723,279532.658164723,279535.858101095,3.2,279537.228149639,279537.228149639,279540.428122262,3.2,279542.509914712,279542.877680382,0.367765670700464,66,Equals to,Index,66,=,Index
222,Spatial,3421,1,4,49,800,3.75,3.33333333333333,1,r,r,0,1200,0,800,S,=,L,0.300433113528686,0.487125556084835,1.39952604893143,1.77498937216773,1.69157352327224,279544.109999211,279544.428468773,279544.428468773,279547.628205927,3.2,279549.058488284,279549.058488284,279551.458533023,2.4,279553.376644833,279553.765525381,0.388880548009183,66,Shorter,Index,78,=,Middle
222,Spatial,3421,1,4,50,800,7.5,3.33333333333333,1,l,l,-1600,-400,-1600,-800,S,=,L,0.465304895988652,0.278456531695419,1.11405114953124,1.61478881037454,1.29752398660017,279555.66008023,279556.138548954,279556.138548954,279557.738440286,1.6,279558.888748653,279558.888748653,279561.288613743,2.4,279563.060098435,279563.42968562,0.369587185385171,66,Shorter,Index,77,L,Ring
222,Spatial,3421,1,4,51,1200,20,7.5,1,l,l,-1600,0,-1600,-400,S,=,L,0.323230868660851,0.304096888673736,1.89056182496334,1.11952810018517,1.36154985371217,279564.876748452,279565.218930747,279565.218930747,279566.018455979,0.8,279567.928913405,279567.928913405,279569.528785488,1.6,279570.793480099,279571.925624265,1.13214416609844,66,Shorter,Index,66,S,Index
222,Spatial,3421,1,4,52,1200,2.5,5,1,m,m,-800,0,-800,400,L,S,=,0.370401477656957,0.262881918338023,1.26510101244206,1.03292987258797,1.6790898236728,279573.443465998,279573.828803883,279573.828803883,279577.028760465,3.2,279578.318788119,279578.318788119,279580.71883382,2.4,279581.893485021,279582.405788105,0.512303083611187,66,Longer,Index,77,=,Ring
222,Spatial,3421,1,4,53,1600,3.75,5,2,l,l,-1600,-400,-1600,0,L,S,=,0.262502414394786,0.44842541390456,1.67347310030155,1.3402017038891,1.17759069966484,279584.243529902,279584.518932415,279584.518932415,279587.71879789,3.2,279589.419130222,279589.419130222,279592.619027456,3.2,279594.093632367,279596.077775596,1.98414322908502,66,Longer,Index,66,L,Index
222,Spatial,3421,1,4,54,1600,5,5,2,l,l,-1600,-400,-1600,0,L,S,=,0.481125771625126,0.35743210769264,1.37023911394063,1.19759016451301,1.11636280794535,279597.410298583,279597.909378478,279597.909378478,279600.30892437,2.4,279601.709236748,279601.709236748,279604.909082974,3.2,279606.260335764,279607.341719423,1.08138365822379,66,Longer,Index,66,L,Index
222,Spatial,3421,1,4,55,1200,10,5,1,l,l,-1600,0,-1600,-400,=,L,S,0.496806807399544,0.238730029329237,1.27689452360134,1.02215978638546,1.80680396612045,279608.610345677,279609.119552013,279609.119552013,279610.719124467,1.6,279612.019424847,279612.019424847,279614.419321696,2.4,279615.577081992,279618.461759099,2.8846771074459,77,Shorter,Ring,77,S,Ring
222,Spatial,3421,1,4,56,1200,6.66666666666667,7.5,1,m,m,-800,800,-800,400,=,L,S,0.466355421519768,0.400162085907944,1.99783654350499,1.36615453457572,1.53212234583793,279620.410470213,279620.889662619,279620.889662619,279623.289541182,2.4,279625.319614505,279625.319614505,279626.919632553,1.6,279628.427099955,279629.101714174,0.674614219344221,77,Shorter,Ring,66,=,Index
222,Spatial,3421,1,4,57,400,2.5,1.25,2,m,m,-800,0,-800,-400,=,L,S,0.484868389433332,0.390142819657127,1.02865903349623,1.03487058539485,1.44962565115355,279630.793856703,279631.28989411,279631.28989411,279634.489476316,3.2,279635.549859668,279635.549859668,279638.749802136,3.2,279639.927188496,279640.317709947,0.390521451074164,77,Shorter,Ring,77,S,Ring
222,Spatial,3421,1,4,58,1600,5,5,2,l,l,-1600,-400,-1600,0,L,S,=,0.326007852840239,0.335369813242071,1.07165678265786,1.87452292198334,1.50076830950068,279641.927248807,279642.269787193,279642.269787193,279644.669825195,2.4,279645.759823398,279645.759823398,279648.959892583,3.2,279650.977277904,279651.357741566,0.380463661742397,66,Longer,Index,66,L,Index
222,Spatial,3421,1,4,59,400,1.25,1.25,2,r,r,0,400,0,400,S,=,L,0.477505661811702,0.452182727553906,1.66106134818495,1.63708383172368,1.84415166141609,279653.010667907,279653.500046151,279653.500046151,279656.699898793,3.2,279658.390036674,279658.390036674,279661.589992294,3.2,279663.377268793,279663.781740647,0.404471853806172,78,Equals to,Middle,78,=,Middle
222,Spatial,3421,1,4,60,800,5,5,1,l,l,-1600,-1200,-1600,-800,L,S,=,0.25641946636944,0.380399676426555,1.28210615991705,1.76125134599819,1.26174270491996,279665.76074607,279666.030022225,279666.030022225,279666.830043417,0.8,279668.140133717,279668.140133717,279669.739954793,1.6,279671.660707125,279672.13375814,0.473051014589146,66,Longer,Index,66,L,Index
222,Spatial,3421,1,4,61,1200,5,5,1,m,m,-800,0,-800,400,L,S,=,0.233828680131248,0.256206157966057,1.14815915793564,1.66043096787185,1.87923239043319,279673.560782706,279673.810158861,279673.810158861,279675.410087085,1.6,279676.590333994,279676.590333994,279678.99022186,2.4,279680.810814868,279681.141820219,0.331005350220948,66,Longer,Index,66,L,Index
222,Spatial,3421,1,4,62,1200,3.33333333333333,7.5,1,l,l,-1600,-800,-1600,-400,S,=,L,0.408085620609622,0.365679600386922,1.72512657382064,1.3500871601129,1.65321340751927,279683.17750978,279683.600410389,279683.600410389,279686.000304993,2.4,279687.750511153,279687.750511153,279689.350488139,1.6,279690.844147574,279691.245782895,0.401635321089998,77,Longer,Ring,78,=,Middle
222,Spatial,3421,1,4,63,400,5,5,2,m,m,-800,0,-800,-400,L,S,=,0.400361817252247,0.263906449170608,1.92612953286201,1.48421278682536,1.33967634549599,279693.044237976,279693.460787666,279693.460787666,279695.060627027,1.6,279697.020535143,279697.020535143,279697.820518801,0.8,279699.44426568,279699.877769565,0.433503885753453,78,Shorter,Middle,78,S,Middle
222,Spatial,3421,1,4,64,1200,3.33333333333333,7.5,1,r,r,0,800,0,1200,S,=,L,0.210050579067818,0.356453160165617,1.81428721659147,1.69002051523614,1.71195065502135,279701.360957928,279701.590565934,279701.590565934,279703.990585329,2.4,279705.840790655,279705.840790655,279707.440774057,1.6,279709.277613206,279709.677853359,0.400240152550396,77,Longer,Ring,77,L,Ring
222,Spatial,3421,1,4,65,1200,2.5,5,1,r,r,0,800,0,1200,=,L,S,0.22190602901875,0.39834675072944,1.72194449408973,1.78426185192848,1.27124568388719,279711.560971338,279711.80091623,279711.80091623,279715.00093152,3.2,279716.751093088,279716.751093088,279719.151007903,2.4,279721.077728039,279721.533797149,0.456069109612145,78,Longer,Middle,66,=,Index
222,Spatial,3421,1,4,66,1200,3.33333333333333,7.5,1,m,m,-800,0,-800,400,L,S,=,0.336353222882378,0.287625434700922,1.89671115202064,1.37230711359115,1.99365647183362,279722.961078036,279723.311029518,279723.311029518,279725.710778799,2.4,279727.641294379,279727.641294379,279729.240807806,1.6,279730.76105789,279731.725617592,0.964559702260885,66,Longer,Index,66,L,Index
222,Spatial,3421,1,4,67,1600,20,20,2,r,r,0,1600,0,1600,S,=,L,0.366774020234316,0.414309039184063,1.2721621010841,1.50427169201187,1.12766093381417,279733.861193397,279734.24121944,279734.24121944,279735.041091138,0.8,279736.351284415,279736.351284415,279737.151104785,0.8,279738.794449545,279739.149605766,0.35515622101957,78,Equals to,Middle,78,=,Middle
222,Spatial,3421,1,4,68,1200,10,7.5,1,m,m,-800,0,-800,400,S,=,L,0.27734554555533,0.32775671403563,1.64731095621589,1.52949140729689,1.44334191231288,279740.427861539,279740.721121826,279740.721121826,279741.521109655,0.8,279743.211099325,279743.211099325,279744.811091388,1.6,279746.494484769,279746.861763142,0.367278372228611,77,Longer,Ring,77,L,Ring
222,Spatial,3421,1,4,69,1600,3.75,5,2,l,l,-1600,-400,-1600,0,S,=,L,0.277879786670829,0.313492030412177,1.95488272635529,1.97237716798605,1.49897938456545,279748.461210207,279748.751384698,279748.751384698,279751.951244398,3.2,279753.931438118,279753.931438118,279757.131338881,3.2,279759.244622524,279759.669738347,0.42511582368752,77,Longer,Ring,77,L,Ring
222,Spatial,3421,1,4,70,1200,10,7.5,1,r,r,0,800,0,1200,=,L,S,0.23896614590159,0.247848430582512,1.16962144563635,1.1692615064972,1.76086526742206,279761.327931346,279761.581687734,279761.581687734,279762.381532164,0.8,279763.581529899,279763.581529899,279765.181415135,1.6,279766.494606033,279766.949835525,0.455229492217768,78,Longer,Middle,66,=,Index
222,Spatial,3421,1,4,71,1200,10,7.5,1,m,m,-800,0,-800,400,=,L,S,0.330762563718885,0.260869422784008,1.9810722756178,1.66084483928552,1.5724916967907,279768.86137048,279769.211718473,279769.211718473,279770.011525049,0.8,279772.02156973,279772.02156973,279773.621597402,1.6,279775.44465874,279776.277904174,0.833245433517732,78,Longer,Middle,78,L,Middle
222,Spatial,3421,1,4,72,1200,6.66666666666667,7.5,1,l,l,-1600,0,-1600,-400,S,=,L,0.300673992348324,0.300369887367333,1.83549546005277,1.29638388750401,1.87085971965077,279777.994753922,279778.311803935,279778.311803935,279780.711783551,2.4,279782.581969719,279782.581969719,279784.181847897,1.6,279785.628058127,279786.029791934,0.401733807346318,66,Shorter,Index,66,S,Index
222,Spatial,3421,1,4,73,1600,15,20,2,r,r,0,1200,0,1600,L,S,=,0.263398276256599,0.207259694553911,1.00172510603457,1.20464677107703,1.83233833925506,279787.361477948,279787.642103763,279787.642103763,279788.441908414,0.8,279789.481739575,279789.481739575,279790.281751464,0.8,279791.628092132,279794.31782287,2.68973073794041,66,Longer,Index,77,=,Ring
222,Spatial,3421,1,4,74,800,15,5,1,r,r,0,1200,0,800,L,S,=,0.205927078713666,0.40980195506604,1.42955885776777,1.30070068875515,1.17750235563187,279796.311487348,279796.531994838,279796.531994838,279797.331901824,0.8,279798.79230975,279798.79230975,279800.391858144,1.6,279801.844830883,279803.381803973,1.53697309043491,78,Shorter,Middle,78,S,Middle
222,Spatial,3421,1,4,75,1600,10,20,2,r,r,0,1600,0,1600,S,=,L,0.450709908473396,0.356942170301557,1.70248150705007,1.91992563541239,1.3771568945581,279804.694918109,279805.162331301,279805.162331301,279806.762176758,1.6,279808.491975731,279808.491975731,279809.291986336,0.8,279811.361611468,279811.901740544,0.540129076282028,78,Equals to,Middle,77,L,Ring
222,Spatial,3421,1,4,76,400,5,5,2,r,r,0,400,0,400,=,L,S,0.323703634090623,0.248732652609317,1.91548827793887,1.82751005750308,1.41219414684208,279813.428281148,279813.762252512,279813.762252512,279814.562238096,0.8,279816.51238741,279816.51238741,279817.312164151,0.8,279819.294950638,279819.661789191,0.366838552465197,66,Equals to,Index,66,=,Index
222,Spatial,3421,1,4,77,1200,20,7.5,1,l,l,-1600,0,-1600,-400,L,S,=,0.406088822450873,0.497435453797253,1.68395271125412,1.02540601128272,1.83661815070008,279821.228346977,279821.6524368,279821.6524368,279822.452290855,0.8,279824.162459622,279824.162459622,279825.762397791,1.6,279826.928311304,279828.693670509,1.76535920536844,78,Shorter,Middle,78,S,Middle
222,Spatial,3421,1,4,78,800,1.66666666666667,5,1,m,m,-800,-400,-800,0,L,S,=,0.32859594423481,0.398457811227933,1.4278746327336,1.09715519461692,1.4486868961073,279830.678410913,279831.022776908,279831.022776908,279833.422626921,2.4,279834.892797177,279834.892797177,279836.492702944,1.6,279837.745039276,279838.133656766,0.38861749030184,66,Longer,Index,66,L,Index
222,Spatial,3421,1,4,79,800,15,5,1,r,r,0,1200,0,800,S,=,L,0.294695931121509,0.251017029657535,1.9266798079449,1.58542261364686,1.02454249654261,279839.74508098,279840.052782818,279840.052782818,279840.852638476,0.8,279842.802730366,279842.802730366,279844.402621377,1.6,279846.128497788,279847.149722538,1.02122475067154,66,Shorter,Index,77,L,Ring
222,Spatial,3421,1,4,80,1200,6.66666666666667,7.5,1,l,l,-1600,0,-1600,-400,=,L,S,0.264340395965961,0.32612778684383,1.91509362446078,1.86270104185502,1.981813902556,279848.328519697,279848.612917182,279848.612917182,279851.012787084,2.4,279852.96280487,279852.96280487,279854.562650647,1.6,279856.578512479,279857.053659936,0.475147456687409,77,Shorter,Ring,77,S,Ring
222,Spatial,3421,1,4,81,1600,10,20,2,m,m,-800,800,-800,800,=,L,S,0.357181908826331,0.221322702692125,1.12245284269031,1.06326800345048,1.49218044532098,279859.195207793,279859.563151785,279859.563151785,279861.162995317,1.6,279862.313094201,279862.313094201,279863.112939273,0.8,279864.328602578,279864.917942978,0.589340400299989,66,Equals to,Index,77,S,Ring
222,Spatial,3421,1,4,82,800,5,5,1,m,m,-800,-400,-800,0,S,=,L,0.331803673734834,0.482755363090247,1.08383256804671,1.88745725823191,1.15797234635475,279866.561971551,279866.913220084,279866.913220084,279867.713033717,0.8,279868.823118948,279868.823118948,279870.42288645,1.6,279872.461921746,279872.86193445,0.40001270378707,77,Longer,Ring,77,L,Ring
222,Spatial,3421,1,4,83,1200,10,5,1,m,m,-800,800,-800,400,S,=,L,0.2876781093671,0.454340436748052,1.79514836131502,1.56546892337223,1.68742029372633,279874.178671725,279874.483207566,279874.483207566,279876.083236201,1.6,279877.90339231,279877.90339231,279880.303283064,2.4,279882.012043525,279882.437805765,0.42576224001823,66,Shorter,Index,66,S,Index
222,Spatial,3421,1,4,84,400,2.5,1.25,2,l,l,-1600,-800,-1600,-1200,=,L,S,0.234575935603466,0.273431890323367,1.38719581961151,1.21611813092239,1.53666153104911,279884.27874243,279884.533281896,279884.533281896,279887.733320604,3.2,279889.143614741,279889.143614741,279892.343237048,3.2,279893.712098669,279894.125922226,0.413823557493743,77,Shorter,Ring,66,=,Index
222,Spatial,3421,1,4,85,1200,10,5,1,l,l,-1600,0,-1600,-400,L,S,=,0.382440085978983,0.484761698219498,1.68554091716588,1.43831424828409,1.09993881550674,279895.812157183,279896.213557953,279896.213557953,279897.813252953,1.6,279899.533556182,279899.533556182,279901.933479337,2.4,279903.512175422,279904.07786895,0.565693527576514,78,Shorter,Middle,78,S,Middle
222,Spatial,3421,1,4,86,1200,3.33333333333333,7.5,1,l,l,-1600,-800,-1600,-400,L,S,=,0.330669600194529,0.345840290415831,1.9046702993958,1.25373458846046,1.13238726095358,279905.328870975,279905.673445492,279905.673445492,279908.073501459,2.4,279910.013726759,279910.013726759,279911.613634451,1.6,279913.012187916,279913.693862028,0.681674112507608,66,Longer,Index,66,L,Index
222,Spatial,3421,1,4,87,800,1.66666666666667,5,1,l,l,-1600,-1200,-1600,-800,S,=,L,0.398361728316926,0.29232210558594,1.34630544754617,1.50676243236533,1.36427023748853,279914.978877423,279915.393889829,279915.393889829,279917.793821966,2.4,279919.173972891,279919.173972891,279920.773836954,1.6,279922.428894843,279922.941863912,0.512969068891834,77,Longer,Ring,78,=,Middle
222,Spatial,3421,1,4,88,1600,6.66666666666667,5,2,m,m,-800,800,-800,800,=,L,S,0.477937786397643,0.481524230593064,1.57161772345036,1.40385284281756,1.94694199669587,279924.462313766,279924.95393084,279924.95393084,279927.35397975,2.4,279928.95387085,279928.95387085,279932.153855984,3.2,279933.695625478,279934.141937632,0.446312154643238,66,Equals to,Index,66,=,Index
222,Spatial,3421,1,4,89,400,3.33333333333333,1.25,2,l,l,-1600,-800,-1600,-1200,S,=,L,0.416746972927645,0.457472030219764,1.82657940813197,1.71545207737212,1.31784149252092,279936.245710073,279936.674276049,279936.674276049,279939.074191184,2.4,279940.934140876,279940.934140876,279944.134010842,3.2,279945.995764194,279946.325883986,0.330119792255573,66,Shorter,Index,66,S,Index
222,Spatial,3421,1,4,90,1200,5,5,1,m,m,-800,0,-800,400,S,=,L,0.275739975131376,0.353123711451631,1.03272197758363,1.7288094525061,1.10617656250809,279947.795792102,279948.084472617,279948.084472617,279949.684255838,1.6,279950.744296253,279950.744296253,279953.144278757,2.4,279955.029089057,279955.59786102,0.56877196294954,77,Longer,Ring,77,L,Ring
222,Spatial,3421,1,4,91,400,10,5,2,m,m,-800,0,-800,-400,=,L,S,0.379426301447809,0.462379847423133,1.31571078775373,1.82715394310075,1.15986004752118,279956.845851034,279957.244365226,279957.244365226,279958.044220884,0.8,279959.394408887,279959.394408887,279960.194203272,0.8,279962.17918663,279962.606026718,0.426840087340679,77,Shorter,Ring,77,S,Ring
222,Spatial,3421,1,4,92,800,5,5,1,m,m,-800,400,-800,0,S,=,L,0.345639192077865,0.393189947671467,1.744537823824,1.84096716151544,1.19981088709191,279963.912525406,279964.274490473,279964.274490473,279966.67436647,2.4,279968.454601317,279968.454601317,279970.054457681,1.6,279972.029188826,279972.405926371,0.376737544662319,66,Shorter,Index,66,S,Index
222,Spatial,3421,1,4,93,1200,5,5,1,l,l,-1600,-800,-1600,-400,S,=,L,0.400597973780427,0.277404286302761,1.28381246122018,1.30233933909952,1.30448044764081,279973.762587475,279974.174797994,279974.174797994,279975.774690288,1.6,279977.094728021,279977.094728021,279979.494600168,2.4,279980.945977543,279981.341916074,0.395938531379215,77,Longer,Ring,77,L,Ring
222,Spatial,3421,1,4,94,800,5,5,1,m,m,-800,400,-800,0,=,L,S,0.245715871997506,0.391814785926261,1.92702305073589,1.69873608501505,1.47278860764166,279982.795998699,279983.054946307,279983.054946307,279985.454846365,2.4,279987.404966807,279987.404966807,279989.004818359,1.6,279990.845969089,279991.222050593,0.376081504276954,77,Shorter,Ring,77,S,Ring
222,Spatial,3421,1,4,95,400,5,5,2,m,m,-800,0,-800,-400,S,=,L,0.209050428436377,0.274938914669231,1.43839525395291,1.35984633640822,1.81559639644915,279992.84606148,279993.074909826,279993.074909826,279994.674919212,1.6,279996.145000286,279996.145000286,279996.94489027,0.8,279998.446026961,279998.89388025,0.447853288205806,66,Shorter,Index,66,S,Index
222,Spatial,3421,1,4,96,800,7.5,3.33333333333333,1,m,m,-800,400,-800,0,L,S,=,0.402737035472165,0.245530079948896,1.21518665274439,1.37193794429234,1.53314500708697,280000.862730681,280001.285238629,280001.285238629,280002.885030191,1.6,280004.125107023,280004.125107023,280006.524983341,2.4,280008.046074569,280008.454044128,0.407969559717458,78,Shorter,Middle,78,S,Middle
