Subject,Task,SequenceOrder,ListNo,RunNo,TrialNo,Aud_Probe_Dist,Aud_Standard_Vel,Aud_Probe_Vel,Main_Control,Aud_Std_StartCode,Aud_Probe_StartCode,Aud_Std_StartPt,Aud_Std_EndPt,Aud_Probe_StartPt,Aud_Probe_EndPt,RespIndex,RespMiddle,RespRing,ISI_Cross_Std,ISI_Cross_Probe,ISI_Std_Probe,ISI_Probe_Response,ITI,TrialOnset,StdOnset,StdOnsetByStop,StdOffset,StdDur,ProbeOnset,ProbeOnsetByStop,ProbeOffset,ProbeDur,RespWinStart,RespTime,RT,CorrectKC,CorrectResponse,CorrectFinger,SubjRespKC,SubjResponse,SubjRespFinger
201,Temporal,1243,1,1,1,1600,20,20,2,r,r,0,1600,0,1600,=,L,S,0.340801508667243,0.200384664933672,1.09495684636529,1.96591323676275,1.90896761557078,672801.526180158,672801.878084033,672801.878084033,672802.688855177,0.8,672803.819422849,672803.819422849,672804.619128574,0.8,672806.742873918,672807.242089909,0.499215990770608,66,Equals to,Index,66,=,Index
201,Temporal,1243,1,1,2,1200,2.5,5,1,r,r,0,800,0,1200,=,L,S,0.453597394586275,0.430328079695057,1.70668068151522,1.6239124209742,1.92789940152575,672809.309586297,672809.779487509,672809.779487509,672812.978985804,3.2,672814.719363789,672814.719363789,672817.11922305,2.4,672818.892930778,672819.410198098,0.517267320072278,77,Shorter,Ring,66,=,Index
201,Temporal,1243,1,1,3,1200,5,5,1,l,l,-1600,-800,-1600,-400,S,=,L,0.384969672863193,0.381610881063792,1.00535814685597,1.71265179984954,1.26981312803379,672821.492972675,672821.889474103,672821.889474103,672823.489384757,1.6,672824.529660823,672824.529660823,672826.929453357,2.4,672828.792954486,672829.346126911,0.553172425483353,77,Longer,Ring,77,L,Ring
201,Temporal,1243,1,1,4,1200,10,5,1,m,m,-800,800,-800,400,L,S,=,0.464714028614353,0.287984005159019,1.00632361869817,1.01496930257436,1.29811217809169,672830.759705619,672831.239607829,672831.239607829,672832.839440207,1.6,672833.879551381,672833.879551381,672836.279402301,2.4,672837.443056549,672837.890130499,0.447073950315826,66,Longer,Index,66,L,Index
201,Temporal,1243,1,1,5,1200,3.33333333333333,7.5,1,l,l,-1600,-800,-1600,-400,=,L,S,0.364544752644593,0.471033443353999,1.48057868174765,1.00968344841839,1.50446617711133,672839.343076406,672839.719492431,672839.719492431,672842.119517867,2.4,672843.63984503,672843.63984503,672845.239687032,1.6,672846.409755071,672846.906183424,0.496428352547809,77,Shorter,Ring,77,S,Ring
201,Temporal,1243,1,1,6,1200,10,5,1,l,l,-1600,0,-1600,-400,=,L,S,0.372531575222801,0.215047235973162,1.27000665938117,1.30944355917986,1.96430680868589,672848.55979538,672848.949825272,672848.949825272,672850.549623966,1.6,672851.849860849,672851.849860849,672854.249696371,2.4,672855.693125762,672856.298159335,0.605033573578112,78,Longer,Middle,78,L,Middle
201,Temporal,1243,1,1,7,800,5,5,1,m,m,-800,400,-800,0,L,S,=,0.481937358377008,0.242960832936359,1.26409947237294,1.01988462666298,1.63631795298823,672858.409838159,672858.909886083,672858.909886083,672861.30973957,2.4,672862.61003131,672862.61003131,672864.209770014,1.6,672865.37652417,672866.634128377,1.25760420691222,78,Shorter,Middle,78,S,Middle
201,Temporal,1243,1,1,8,800,5,5,1,m,m,-800,400,-800,0,=,L,S,0.280425485202998,0.420307581986852,1.41293414699268,1.00301624845357,1.1408742448372,672868.409929574,672868.710044816,672868.710044816,672871.109881942,2.4,672872.550067349,672872.550067349,672874.14997704,1.6,672875.293267428,672875.906332276,0.613064847770147,77,Shorter,Ring,77,S,Ring
201,Temporal,1243,1,1,9,1200,5,5,1,l,l,-1600,0,-1600,-400,=,L,S,0.437584066080765,0.257424460797187,1.03854611324738,1.4387554098288,1.70468519882297,672877.19330108,672877.650084384,672877.650084384,672880.850127079,3.2,672881.910155557,672881.910155557,672884.309981134,2.4,672885.893277565,672886.330010147,0.436732581816614,77,Shorter,Ring,66,=,Index
201,Temporal,1243,1,1,10,1200,5,5,1,r,r,0,1600,0,1200,=,L,S,0.362806739873652,0.337591140176021,1.07678135783492,1.27622824466122,1.54542055530989,672888.176653068,672888.550390076,672888.550390076,672891.75026403,3.2,672892.850468448,672892.850468448,672895.250312631,2.4,672896.660019011,672897.162088022,0.50206901144702,77,Shorter,Ring,77,S,Ring
201,Temporal,1243,1,1,11,800,1.25,3.33333333333333,1,r,r,0,400,0,800,=,L,S,0.321626120782537,0.35323047162098,1.79076802643322,1.32061089821897,1.54547142686425,672898.860055325,672899.200582284,672899.200582284,672902.400316048,3.2,672904.220737944,672904.220737944,672906.620306558,2.4,672908.093404025,672908.658275132,0.564871106646024,77,Shorter,Ring,66,=,Index
201,Temporal,1243,1,1,12,800,3.75,3.33333333333333,1,r,r,0,1200,0,800,L,S,=,0.463516393553443,0.400585959808645,1.48190238764954,1.38792752836481,1.68486050688863,672910.360127666,672910.840583901,672910.840583901,672914.040368351,3.2,672915.560735294,672915.560735294,672917.960544831,2.4,672919.493467352,672920.594223834,1.10075648280326,78,Shorter,Middle,77,=,Ring
201,Temporal,1243,1,1,13,1200,5,5,1,m,m,-800,0,-800,400,L,S,=,0.383664667588231,0.220515702190388,1.44762763077362,1.64234407135559,1.4770847955609,672922.426859263,672922.820765084,672922.820765084,672924.420818494,1.6,672925.910912328,672925.910912328,672928.310762928,2.4,672930.093525288,672930.562125364,0.468600075342692,66,Longer,Index,66,L,Index
201,Temporal,1243,1,1,14,800,1.66666666666667,5,1,l,l,-1600,-1200,-1600,-800,S,=,L,0.319815943115103,0.301343155668758,1.03335122799322,1.75628887820099,1.54611932491073,672932.176922541,672932.511057202,672932.511057202,672934.910835622,2.4,672935.970922485,672935.970922485,672937.570765449,1.6,672939.476933224,672939.930199933,0.453266709228046,66,Shorter,Index,78,=,Middle
201,Temporal,1243,1,1,15,1600,7.5,20,2,m,m,-800,400,-800,800,=,L,S,0.220821200781872,0.478362170134625,1.66838194436064,1.7521817632601,1.72166628770309,672941.610272589,672941.850992317,672941.850992317,672943.450828545,1.6,672945.141188709,672945.141188709,672945.940999657,0.8,672947.843631875,672948.417961824,0.574329949216917,77,Shorter,Ring,77,S,Ring
201,Temporal,1243,1,1,16,800,5,5,1,r,r,0,400,0,800,=,L,S,0.272172881477245,0.267696935702017,1.72942861332794,1.94856227594503,1.56108578997464,672950.293689282,672950.581163956,672950.581163956,672951.380969771,0.8,672953.141163365,672953.141163365,672954.74098644,1.6,672956.843668446,672957.31424049,0.470572044258006,78,Longer,Middle,78,L,Middle
201,Temporal,1243,1,1,17,800,1.66666666666667,5,1,l,l,-1600,-1200,-1600,-800,S,=,L,0.273365183607763,0.392415811290577,1.92833071769612,1.1238847136367,1.92945053938671,672959.010385075,672959.301347429,672959.301347429,672961.701116865,2.4,672963.651625516,672963.651625516,672965.251130676,1.6,672966.510389008,672967.122025646,0.611636638059281,66,Shorter,Index,78,=,Middle
201,Temporal,1243,1,1,18,400,1.25,1.25,2,r,r,0,400,0,400,L,S,=,0.358895424909447,0.497179804170386,1.81791701546626,1.9834166071229,1.45883936159989,672969.210431257,672969.581392367,672969.581392367,672972.78133818,3.2,672974.631576042,672974.631576042,672977.831388402,3.2,672979.960449623,672980.50599306,0.5455434366595,77,Equals to,Ring,77,=,Ring
201,Temporal,1243,1,1,19,800,15,5,1,r,r,0,1200,0,800,S,=,L,0.409242419268206,0.321536653744522,1.34142426827446,1.00431445056223,1.58828842161775,672982.110524258,672982.531794797,672982.531794797,672983.331317986,0.8,672984.701774865,672984.701774865,672986.301686481,1.6,672987.443881803,672988.082137785,0.638255982310511,77,Longer,Ring,77,L,Ring
201,Temporal,1243,1,1,20,800,15,5,1,m,m,-800,400,-800,0,S,=,L,0.364571368217359,0.35435198425824,1.64742933524373,1.20753196264793,1.54204472765573,672989.810551109,672990.191666559,672990.191666559,672990.991678009,0.8,672992.671826088,672992.671826088,672994.271673864,1.6,672995.627251347,672997.274251898,1.64700055075809,77,Longer,Ring,77,L,Ring
201,Temporal,1243,1,1,21,1600,3.75,5,2,l,l,-1600,-400,-1600,0,=,L,S,0.410090879232189,0.44971123729843,1.53513796885406,1.42139516718829,1.80819698168078,672998.97725162,672999.401919771,672999.401919771,673002.601789234,3.2,673004.161907055,673004.161907055,673007.361870512,3.2,673008.927336798,673009.857986795,0.930649996735156,66,Equals to,Index,78,L,Middle
201,Temporal,1243,1,1,22,800,2.5,3.33333333333333,1,r,r,0,400,0,800,S,=,L,0.479211812895692,0.498870592571475,1.66190898045566,1.49482342558016,1.45746049498219,673011.81067558,673012.302178306,673012.302178306,673013.902026082,1.6,673015.592161685,673015.592161685,673017.991970259,2.4,673019.643996242,673020.242089267,0.598093025502749,77,Longer,Ring,77,L,Ring
201,Temporal,1243,1,1,23,800,7.5,3.33333333333333,1,l,l,-1600,-400,-1600,-800,S,=,L,0.450728667028445,0.42687755607023,1.66630103312677,1.83578867019085,1.88975726085291,673021.844053729,673022.312143053,673022.312143053,673023.911933405,1.6,673025.612257675,673025.612257675,673028.01207459,2.4,673029.994113949,673030.570155355,0.576041405438446,77,Longer,Ring,77,L,Ring
201,Temporal,1243,1,1,24,1600,10,20,2,r,r,0,1600,0,1600,S,=,L,0.35879588548962,0.25063355148793,1.47075522614993,1.88691474206817,1.82727832021806,673032.627469813,673033.002492916,673033.002492916,673034.602317594,1.6,673036.092361063,673036.092361063,673036.892231681,0.8,673038.927434942,673039.361970673,0.434535730746575,66,Shorter,Index,66,S,Index
201,Temporal,1243,1,1,25,1200,20,7.5,1,r,r,0,1600,0,1200,L,S,=,0.414938836607577,0.319595899234608,1.39606454535057,1.39478297211697,1.66671962800403,673044.344163604,673044.772520976,673044.772520976,673045.5723701,0.8,673047.002660054,673047.002660054,673048.602513925,1.6,673050.144163219,673050.602154377,0.457991158124059,66,Longer,Index,66,L,Index
201,Temporal,1243,1,1,26,400,5,5,2,r,r,0,400,0,400,L,S,=,0.292944753010073,0.472355478350429,1.88487285743991,1.967456158136,1.62198234274133,673052.410876594,673052.722624098,673052.722624098,673053.522463919,0.8,673055.442643641,673055.442643641,673056.242396525,0.8,673058.360872568,673059.122181555,0.761308987042867,77,Equals to,Ring,78,S,Middle
201,Temporal,1243,1,1,27,400,2.5,5,2,l,l,-1600,-1200,-1600,-1200,=,L,S,0.317612816014109,0.480625074981075,1.07442283717171,1.48345897217614,1.44014704151845,673060.894277825,673061.222569401,673061.222569401,673062.822469148,1.6,673063.932931526,673063.932931526,673064.73241269,0.8,673066.360971327,673066.794045212,0.433073884458281,77,Shorter,Ring,77,S,Ring
201,Temporal,1243,1,1,28,1200,10,7.5,1,m,m,-800,0,-800,400,=,L,S,0.299325930839594,0.29096816415018,1.67583339004929,1.34067409544154,1.31303473301309,673068.377643768,673068.692939982,673068.692939982,673069.492733607,0.8,673071.202727486,673071.202727486,673072.802562751,1.6,673074.277636999,673074.738144527,0.460507527692243,78,Longer,Middle,78,L,Middle
201,Temporal,1243,1,1,29,1600,6.66666666666667,5,2,r,r,0,1600,0,1600,S,=,L,0.274591655590754,0.46738786214905,1.78390019676611,1.41664851090839,1.00435778045086,673076.210990736,673076.502817728,673076.502817728,673078.902787665,2.4,673080.712927221,673080.712927221,673083.912973445,3.2,673085.477732493,673085.954124694,0.476392200449482,77,Longer,Ring,77,L,Ring
201,Temporal,1243,1,1,30,800,1.25,3.33333333333333,1,l,l,-1600,-1200,-1600,-800,S,=,L,0.262491981116399,0.346420321690264,1.86992452649516,1.19506647034493,1.13875338836069,673087.111072829,673087.393147766,673087.393147766,673090.592971033,3.2,673092.492997983,673092.492997983,673094.892886116,2.4,673096.244415401,673096.681951592,0.437536190496758,66,Shorter,Index,78,=,Middle
201,Temporal,1243,1,1,31,1200,5,5,1,m,m,-800,0,-800,400,=,L,S,0.352331642431196,0.2269073781525,1.63965026722989,1.01581558859821,1.16912310486096,673097.961157312,673098.33340612,673098.33340612,673099.93313937,1.6,673101.603364406,673101.603364406,673104.003154695,2.4,673105.161168838,673105.793989713,0.632820874918252,78,Longer,Middle,78,L,Middle
201,Temporal,1243,1,1,32,1200,10,7.5,1,r,r,0,800,0,1200,L,S,=,0.294965650673277,0.213821248924443,1.54574436687719,1.09858983312744,1.25947376692265,673107.111171636,673107.423346768,673107.423346768,673108.223137827,0.8,673109.803381473,673109.803381473,673111.403162522,1.6,673112.644072272,673113.114031263,0.46995899186004,66,Longer,Index,66,L,Index
201,Temporal,1243,1,1,33,800,2.5,3.33333333333333,1,r,r,0,400,0,800,=,L,S,0.305326014555904,0.382617700212653,1.28651441311987,1.601113246016,1.0075651421354,673114.511228225,673114.833402752,673114.833402752,673116.433263039,1.6,673117.743343086,673117.743343086,673120.143232502,2.4,673121.894597257,673122.30620697,0.411609713220969,78,Longer,Middle,78,L,Middle
201,Temporal,1243,1,1,34,1200,3.33333333333333,7.5,1,l,l,-1600,-800,-1600,-400,L,S,=,0.3734961209036,0.387345180528734,1.50338235567614,1.61480620100781,1.26324621948224,673123.461238635,673123.853724266,673123.853724266,673126.253520329,2.4,673127.783737492,673127.783737492,673129.383565058,1.6,673131.144601434,673131.657973899,0.513372464803979,78,Shorter,Middle,77,=,Ring
201,Temporal,1243,1,1,35,1600,20,20,2,r,r,0,1600,0,1600,=,L,S,0.349210820200045,0.256104412240798,1.96724523908835,1.66432944987037,1.15642001268757,673133.061339239,673133.423936081,673133.423936081,673134.22339511,0.8,673136.223723326,673136.223723326,673137.02351663,0.8,673138.844690304,673139.289925956,0.445235651684925,66,Equals to,Index,66,=,Index
201,Temporal,1243,1,1,36,400,2.5,1.25,2,m,m,-800,0,-800,-400,S,=,L,0.332073235148741,0.274516772519277,1.53822547026592,1.86908332382983,1.05339667077063,673140.61134287,673140.963804854,673140.963804854,673144.163747139,3.2,673145.734065817,673145.734065817,673148.933584643,3.2,673150.944735144,673151.45801201,0.513276865822263,78,Equals to,Middle,77,L,Ring
201,Temporal,1243,1,1,37,800,1.66666666666667,5,1,r,r,0,400,0,800,L,S,=,0.354557532485377,0.210549972326422,1.37355134544371,1.59368631400491,1.96856600543356,673152.661429897,673153.034146755,673153.034146755,673155.433953726,2.4,673156.834164335,673156.834164335,673158.433892453,1.6,673160.177660065,673160.602061665,0.424401600263081,78,Shorter,Middle,78,S,Middle
201,Temporal,1243,1,1,38,800,7.5,3.33333333333333,1,r,r,0,1200,0,800,=,L,S,0.263642834193478,0.432481756791857,1.28256301848821,1.8328945766985,1.91189057632682,673162.711491668,673162.994086945,673162.994086945,673164.593987333,1.6,673165.914189319,673165.914189319,673168.314052109,2.4,673170.29480856,673171.537920222,1.24311166245025,78,Longer,Middle,78,L,Middle
201,Temporal,1243,1,1,39,800,5,5,1,l,l,-1600,-1200,-1600,-800,=,L,S,0.399272365394038,0.420851592009885,1.91062514645115,1.6233313008751,1.92346665917937,673173.594892065,673174.014285271,673174.014285271,673174.814038154,0.8,673176.754285958,673176.754285958,673178.354045834,1.6,673180.111571411,673180.553878831,0.44230742007494,78,Longer,Middle,78,L,Middle
201,Temporal,1243,1,1,40,1600,3.75,5,2,l,l,-1600,-400,-1600,0,L,S,=,0.408128033448626,0.334917195631606,1.81678408400413,1.28126440841329,1.11672846936616,673182.644925141,673183.06435442,673183.06435442,673186.264229336,3.2,673188.114378977,673188.114378977,673191.314206415,3.2,673192.744987824,673193.217972667,0.472984842723235,77,Equals to,Ring,66,L,Index
201,Temporal,1243,1,1,41,1200,2.5,5,1,r,r,0,800,0,1200,S,=,L,0.489823484910237,0.209608422751917,1.11919916842954,1.97939956205523,1.04235729035168,673194.478332883,673194.984412203,673194.984412203,673198.184324653,3.2,673199.324398004,673199.324398004,673201.724480543,2.4,673203.861701464,673204.329881826,0.468180362368003,66,Shorter,Index,66,S,Index
201,Temporal,1243,1,1,42,800,7.5,3.33333333333333,1,l,l,-1600,-400,-1600,-800,=,L,S,0.340708052766374,0.23488386132656,1.37132998636716,1.07173473889823,1.67596277875328,673205.511707182,673205.864542346,673205.864542346,673207.464421881,1.6,673208.864681253,673208.864681253,673211.264591842,2.4,673212.47839191,673212.970166069,0.491774159250781,78,Longer,Middle,78,L,Middle
201,Temporal,1243,1,1,43,1200,2.5,5,1,m,m,-800,0,-800,400,L,S,=,0.210277069630637,0.235538935615221,1.10433387248711,1.43254372600025,1.46925381019113,673214.811758607,673215.035002013,673215.035002013,673218.234836187,3.2,673219.364933884,673219.364933884,673221.764776784,2.4,673223.345135417,673224.4259777,1.08084228320513,78,Shorter,Middle,77,=,Ring
201,Temporal,1243,1,1,44,1200,6.66666666666667,7.5,1,m,m,-800,800,-800,400,S,=,L,0.368639525990911,0.382628632310478,1.64890171059416,1.22595168642826,1.48853001524522,673226.04516473,673226.424849084,673226.424849084,673228.824736575,2.4,673230.505093175,673230.505093175,673232.104907909,1.6,673233.478504191,673233.890117667,0.411613476113416,66,Shorter,Index,66,S,Index
201,Temporal,1243,1,1,45,1200,5,5,1,r,r,0,1600,0,1200,L,S,=,0.250722041886333,0.30702456151262,1.64192126590661,1.30607932297284,1.37876932203569,673235.528556658,673235.795079442,673235.795079442,673238.994956924,3.2,673240.665090211,673240.665090211,673243.0650008,2.4,673244.511893889,673245.170015357,0.658121467684396,78,Shorter,Middle,77,=,Ring
201,Temporal,1243,1,1,46,1600,5,5,2,r,r,0,1600,0,1600,=,L,S,0.250521013952434,0.202173181795809,1.56139612179751,1.71042124748558,1.87853194283744,673246.711914164,673246.975295977,673246.975295977,673250.175176346,3.2,673251.775323181,673251.775323181,673254.975242688,3.2,673256.845264115,673257.321862101,0.476597986184061,66,Equals to,Index,78,L,Middle
201,Temporal,1243,1,1,47,1200,6.66666666666667,7.5,1,m,m,-800,800,-800,400,L,S,=,0.344585268680559,0.26674052040324,1.56325969062192,1.93330668096201,1.13188170405213,673259.36201334,673259.725356047,673259.725356047,673262.125122596,2.4,673263.725509711,673263.725509711,673265.325323803,1.6,673267.412038963,673267.874069554,0.46203059097752,78,Shorter,Middle,78,S,Middle
201,Temporal,1243,1,1,48,800,3.75,3.33333333333333,1,m,m,-800,400,-800,0,S,=,L,0.482224805434603,0.413363026539922,1.35984770021335,1.25826034525112,1.08157753633506,673269.162042468,673269.655550847,673269.655550847,673272.8554803,3.2,673274.255738709,673274.255738709,673276.655366672,2.4,673278.062049815,673279.178285949,1.11623613454867,66,Shorter,Index,66,S,Index
201,Temporal,1243,1,1,49,1200,20,7.5,1,l,l,-1600,0,-1600,-400,S,=,L,0.481550190867856,0.415285624453807,1.33388158564259,1.18905275370094,1.99329179058813,673280.378767537,673280.8758782,673280.8758782,673281.675648086,0.8,673283.046052354,673283.046052354,673284.645463519,1.6,673285.978763559,673286.409916434,0.431152875185944,77,Longer,Ring,77,L,Ring
201,Temporal,1243,1,1,50,800,15,5,1,m,m,-800,400,-800,0,S,=,L,0.207978404839488,0.329026762332376,1.64860256671567,1.42125698906812,1.44279827433852,673288.545492429,673288.765979827,673288.765979827,673289.565819647,0.8,673291.245710764,673291.245710764,673292.845698089,1.6,673294.412134137,673294.809700342,0.397566204774193,77,Longer,Ring,77,L,Ring
201,Temporal,1243,1,1,51,800,5,5,1,l,l,-1600,-400,-1600,-800,L,S,=,0.409507311008951,0.48897087675884,1.94160031254958,1.92707762722487,1.9686714387565,673296.395519168,673296.81610672,673296.81610672,673299.215660898,2.4,673301.185921961,673301.185921961,673302.785743752,1.6,673304.862251877,673305.28201017,0.419758292729966,78,Shorter,Middle,78,S,Middle
201,Temporal,1243,1,1,52,1600,10,20,2,m,m,-800,800,-800,800,S,=,L,0.29280970709675,0.409572114288167,1.8139436048976,1.32263353136591,1.03434490429658,673307.395574346,673307.705919625,673307.705919625,673309.305785045,1.6,673311.156174967,673311.156174967,673311.956066758,0.8,673313.428955383,673313.825907893,0.396952510694973,66,Shorter,Index,66,S,Index
201,Temporal,1243,1,1,53,800,1.25,3.33333333333333,1,r,r,0,400,0,800,S,=,L,0.39768726191768,0.440857908966331,1.40786048792754,1.38052173476713,1.37158750236778,673315.012281257,673315.426331188,673315.426331188,673318.626175307,3.2,673320.066333447,673320.066333447,673322.466204898,2.4,673323.995442047,673324.402068338,0.406626290641725,66,Shorter,Index,78,=,Middle
201,Temporal,1243,1,1,54,1200,6.66666666666667,7.5,1,l,l,-1600,0,-1600,-400,L,S,=,0.450389967897056,0.2168012094257,1.46432558037376,1.13809891805813,1.55588813844578,673325.912327741,673326.376521247,673326.376521247,673328.776337842,2.4,673330.276381345,673330.276381345,673331.876171057,1.6,673333.162348834,673333.673932187,0.511583352810703,78,Shorter,Middle,78,S,Middle
201,Temporal,1243,1,1,55,1200,2.5,5,1,m,m,-800,0,-800,400,L,S,=,0.261776903918484,0.411293177052171,1.56388587767376,1.67821375233268,1.66645254360423,673335.37908064,673335.656363118,673335.656363118,673338.85626049,3.2,673340.456552968,673340.456552968,673342.856396831,2.4,673344.695772698,673345.146011358,0.45023866055999,78,Shorter,Middle,66,L,Index
201,Temporal,1243,1,1,56,400,3.33333333333333,1.25,2,l,l,-1600,-800,-1600,-1200,L,S,=,0.357100688347322,0.28202507638734,1.63352013607312,1.87785458378263,1.49101245426812,673346.962471316,673347.336777747,673347.336777747,673349.736350212,2.4,673351.396848856,673351.396848856,673354.596705808,3.2,673356.629126113,673357.081919319,0.452793205738999,66,Longer,Index,66,L,Index
201,Temporal,1243,1,1,57,1200,10,7.5,1,m,m,-800,0,-800,400,S,=,L,0.469233834294073,0.271680951607489,1.87611822909786,1.65516522844677,1.23585032248764,673358.712565391,673359.196949845,673359.196949845,673359.996753415,0.8,673361.906867017,673361.906867017,673363.506692337,1.6,673365.312571831,673365.810004462,0.497432631440461,77,Longer,Ring,77,L,Ring
201,Temporal,1243,1,1,58,400,10,5,2,r,r,0,800,0,400,S,=,L,0.456578840160827,0.416729706045858,1.90763453109034,1.83703634285067,1.56333193398809,673367.195886422,673367.66706603,673367.66706603,673368.466858692,0.8,673370.4071004,673370.4071004,673371.206644121,0.8,673373.195886101,673373.609906874,0.414020773256198,78,Equals to,Middle,78,=,Middle
201,Temporal,1243,1,1,59,800,5,5,1,m,m,-800,-400,-800,0,=,L,S,0.262865123791812,0.368276117561812,1.38982565399467,1.82408866393435,1.01286517896483,673375.312632311,673375.587014419,673375.587014419,673376.386797137,0.8,673377.797068092,673377.797068092,673379.396914265,1.6,673381.362658624,673381.793833162,0.43117453798186,78,Longer,Middle,78,L,Middle
201,Temporal,1243,1,1,60,400,2.5,1.25,2,l,l,-1600,-800,-1600,-1200,L,S,=,0.214188164046773,0.357270065472661,1.59405281709073,1.82639308592912,1.09264507742059,673382.979308922,673383.207090712,673383.207090712,673386.407002521,3.2,673388.037151385,673388.037151385,673391.236986522,3.2,673393.196007043,673393.633989149,0.437982105067931,77,Equals to,Ring,66,L,Index
201,Temporal,1243,1,1,61,1600,7.5,20,2,r,r,0,1200,0,1600,=,L,S,0.441605950143633,0.317686746754923,1.12083344886699,1.27737551619792,1.21262425310449,673394.862711565,673395.317376614,673395.317376614,673396.917144511,1.6,673398.067267622,673398.067267622,673398.867065738,0.8,673400.296089912,673400.76973966,0.473649747786112,77,Shorter,Ring,77,S,Ring
201,Temporal,1243,1,1,62,800,3.75,3.33333333333333,1,r,r,0,1200,0,800,L,S,=,0.433089382977732,0.298981100048375,1.89087240033706,1.94859509480139,1.12081850484078,673402.129427186,673402.577547556,673402.577547556,673405.777323345,3.2,673407.697554396,673407.697554396,673410.0971907,2.4,673412.196102642,673412.673975495,0.477872852818109,78,Shorter,Middle,77,=,Ring
201,Temporal,1243,1,1,63,1200,6.66666666666667,7.5,1,l,l,-1600,0,-1600,-400,S,=,L,0.411728907092109,0.394317702189862,1.161036463019,1.19160589477519,1.5391331604225,673413.946172657,673414.377602349,673414.377602349,673416.777374994,2.4,673417.967672121,673417.967672121,673419.56755711,1.6,673420.896141042,673422.265776955,1.3696359123569,66,Shorter,Index,78,=,Middle
201,Temporal,1243,1,1,64,1600,15,20,2,r,r,0,1200,0,1600,S,=,L,0.475143731637835,0.207467432012142,1.85992284108624,1.30688552875951,1.99246504116227,673423.946227515,673424.4375939,673424.4375939,673425.237428908,0.8,673427.117641532,673427.117641532,673427.91744446,0.8,673429.362863144,673430.033977407,0.671114263590425,78,Equals to,Middle,78,=,Middle
201,Temporal,1243,1,1,65,1600,5,5,2,l,l,-1600,-400,-1600,0,L,S,=,0.315653245202305,0.245823175680724,1.32818413116055,1.50328947424477,1.40111483109784,673432.179567232,673432.507974297,673432.507974297,673434.907492545,2.4,673436.277839069,673436.277839069,673439.477726176,3.2,673441.129396068,673441.673872518,0.544476449838839,66,Longer,Index,66,L,Index
201,Temporal,1243,1,1,66,400,10,5,2,m,m,-800,0,-800,-400,=,L,S,0.327976100350792,0.491745566063126,1.68710162090414,1.49957860192373,1.9934894364417,673443.229626757,673443.577997,673443.577997,673444.377803778,0.8,673446.098069411,673446.098069411,673446.897849563,0.8,673448.54631689,673449.08203192,0.535715030389838,66,Equals to,Index,77,S,Ring
201,Temporal,1243,1,1,67,800,2.5,3.33333333333333,1,l,l,-1600,-1200,-1600,-800,S,=,L,0.218214898627559,0.490784300321776,1.86773403189204,1.62281612434924,1.68643027276848,673451.213020128,673451.448070326,673451.448070326,673453.047884418,1.6,673454.948223829,673454.948223829,673457.348051331,2.4,673459.113064518,673460.12986091,1.01679639157373,77,Longer,Ring,77,L,Ring
201,Temporal,1243,1,1,68,800,2.5,3.33333333333333,1,m,m,-800,-400,-800,0,=,L,S,0.467667473732615,0.411597745572458,1.13826030918177,1.75262910842441,1.13176688700814,673461.963094634,673462.448339799,673462.448339799,673464.048166723,1.6,673465.21830402,673465.21830402,673467.618110349,2.4,673469.513077006,673470.089850182,0.576773176086135,78,Longer,Middle,78,L,Middle
201,Temporal,1243,1,1,69,1600,5,5,2,l,l,-1600,-400,-1600,0,S,=,L,0.275572597606171,0.478074668853442,1.00178592196102,1.96727451126278,1.90336093580457,673471.379832599,673471.668380355,673471.668380355,673474.06819727,2.4,673475.098557672,673475.098557672,673478.298093179,3.2,673480.413185878,673480.945765881,0.532580003025942,77,Longer,Ring,77,L,Ring
201,Temporal,1243,1,1,70,800,5,5,1,m,m,-800,400,-800,0,S,=,L,0.354155861393184,0.329105729161759,1.40842377575415,1.05679729847851,1.34258724506789,673482.99653919,673483.368636579,673483.368636579,673485.768214818,2.4,673487.198323518,673487.198323518,673488.798371475,1.6,673489.996508713,673490.425984757,0.429476043907925,66,Shorter,Index,66,S,Index
201,Temporal,1243,1,1,71,1200,3.33333333333333,7.5,1,m,m,-800,0,-800,400,L,S,=,0.37719147906389,0.422968298823441,1.20091699457572,1.23339154812969,1.93284635973517,673491.913240743,673492.308676147,673492.308676147,673494.708522897,2.4,673495.948646646,673495.948646646,673497.548432828,1.6,673498.929942065,673499.553980525,0.62403846043162,78,Shorter,Middle,78,S,Middle
201,Temporal,1243,1,1,72,1200,10,5,1,l,l,-1600,0,-1600,-400,S,=,L,0.238504362641105,0.486831186729793,1.58844130492651,1.33136309080766,1.77333137020321,673501.629945762,673501.888849502,673501.888849502,673503.48861387,1.6,673505.098969581,673505.098969581,673507.498766928,2.4,673508.979530917,673509.449802049,0.470271132071503,77,Longer,Ring,77,L,Ring
201,Temporal,1243,1,1,73,1200,20,7.5,1,l,l,-1600,0,-1600,-400,L,S,=,0.482873766152286,0.310459015874049,1.2067039233913,1.38161863976567,1.00949680067347,673510.546670414,673511.049033565,673511.049033565,673511.84855515,0.8,673513.089049746,673513.089049746,673514.68864056,1.6,673516.213328739,673516.681780283,0.468451544060372,66,Longer,Index,66,L,Index
201,Temporal,1243,1,1,74,400,5,5,2,m,m,-800,0,-800,-400,=,L,S,0.367937040413271,0.25491669688869,1.7426538836043,1.88745032770902,1.28440936476581,673517.830040784,673518.208857368,673518.208857368,673519.808707069,1.6,673521.588969065,673521.588969065,673522.388716494,0.8,673524.413359921,673524.849817255,0.436457333853468,77,Shorter,Ring,77,S,Ring
201,Temporal,1243,1,1,75,1600,6.66666666666667,5,2,m,m,-800,800,-800,800,S,=,L,0.368355794823634,0.403780814332928,1.81170062303611,1.92893744572953,1.12320265691188,673526.280089529,673526.658999788,673526.658999788,673529.058878297,2.4,673530.90909242,673530.90909242,673534.108890022,3.2,673536.196823554,673536.71386111,0.517037556623109,77,Longer,Ring,77,L,Ring
201,Temporal,1243,1,1,76,800,15,5,1,r,r,0,1200,0,800,=,L,S,0.2438023629778,0.245019343332646,1.04940316817401,1.46842648259884,1.65047193723401,673537.98014429,673538.239253985,673538.239253985,673539.039050176,0.8,673540.10911494,673540.10911494,673541.70900025,1.6,673543.330155149,673543.8899547,0.559799550101161,78,Longer,Middle,77,S,Ring
201,Temporal,1243,1,1,77,400,1.25,1.25,2,l,l,-1600,-1200,-1600,-1200,=,L,S,0.336360349435646,0.37955692476001,1.83848669851601,1.48494579771098,1.56693002327422,673545.696849309,673546.0494875,673546.0494875,673549.249355358,3.2,673551.119326383,673551.119326383,673554.319423615,3.2,673555.946919909,673556.409918359,0.462998450151645,66,Equals to,Index,78,L,Middle
201,Temporal,1243,1,1,78,400,1.66666666666667,1.25,2,m,m,-800,-400,-800,-400,L,S,=,0.285878160627106,0.467887043752342,1.69235755996121,1.09245041622668,1.37478010890285,673558.130267366,673558.42964475,673558.42964475,673560.829480593,2.4,673562.549469054,673562.549469054,673565.749541584,3.2,673566.980281593,673567.545777943,0.565496349474415,66,Longer,Index,66,L,Index
201,Temporal,1243,1,1,79,800,1.25,3.33333333333333,1,r,r,0,400,0,800,L,S,=,0.267207970274665,0.218994026346244,1.56948316892784,1.037166111045,1.96966218430951,673569.063671789,673569.349667245,673569.349667245,673572.549454582,3.2,673574.14997098,673574.14997098,673576.549479605,2.4,673577.730367159,673578.481649974,0.751282815122977,78,Shorter,Middle,77,=,Ring
201,Temporal,1243,1,1,80,800,7.5,3.33333333333333,1,m,m,-800,400,-800,0,S,=,L,0.257885733832523,0.414335774948033,1.17353302935697,1.42466635139057,1.13411214343049,673580.597032775,673580.869778153,673580.869778153,673582.469605719,1.6,673583.669852515,673583.669852515,673586.06968547,2.4,673587.630372108,673588.553730942,0.923358833882958,77,Longer,Ring,77,L,Ring
201,Temporal,1243,1,1,81,400,3.33333333333333,1.25,2,r,r,0,800,0,400,L,S,=,0.456554261137778,0.207644943430952,1.61210941571136,1.52780770753183,1.664770077291,673589.830467082,673590.299631139,673590.299631139,673592.699660425,2.4,673594.34028347,673594.34028347,673597.539666597,3.2,673599.230498922,673599.729583288,0.499084366485476,66,Longer,Index,66,L,Index
201,Temporal,1243,1,1,82,800,5,5,1,l,l,-1600,-1200,-1600,-800,S,=,L,0.389497250532687,0.479205919234233,1.43779761440228,1.20865272213118,1.83656071891518,673601.547146804,673601.950015508,673601.950015508,673602.749841213,0.8,673604.220123287,673604.220123287,673605.819944116,1.6,673607.163801746,673608.041764551,0.877962805563584,77,Longer,Ring,77,L,Ring
201,Temporal,1243,1,1,83,1200,3.33333333333333,7.5,1,r,r,0,800,0,1200,L,S,=,0.300699784280599,0.459290911104151,1.7916361479192,1.95461750682031,1.84035892424874,673610.030541619,673610.350236027,673610.350236027,673612.750085985,2.4,673614.570225254,673614.570225254,673616.170065331,1.6,673618.263925807,673618.777756819,0.513831012067385,78,Shorter,Middle,77,=,Ring
201,Temporal,1243,1,1,84,400,5,5,2,r,r,0,400,0,400,L,S,=,0.397547940226652,0.382451731402141,1.40657361314752,1.4501185105103,1.40347783382441,673620.76391486,673621.180485652,673621.180485652,673621.980226666,0.8,673623.420540394,673623.420540394,673624.22033049,0.8,673625.813905734,673626.729689473,0.915783739765175,77,Equals to,Ring,77,=,Ring
201,Temporal,1243,1,1,85,400,2.5,5,2,l,l,-1600,-1200,-1600,-1200,L,S,=,0.437767269773596,0.4241122680594,1.62556977106844,1.47672761996769,1.38267458959964,673628.280631043,673628.730627784,673628.730627784,673630.330453745,1.6,673631.990439749,673631.990439749,673632.790515038,0.8,673634.41400283,673634.817867957,0.403865127358586,78,Shorter,Middle,78,S,Middle
201,Temporal,1243,1,1,86,400,5,5,2,m,m,-800,0,-800,-400,=,L,S,0.227414897569473,0.457697060091223,1.87502805076789,1.84336059150929,1.28441885256677,673636.347333447,673636.590297826,673636.590297826,673638.190277452,1.6,673640.090541796,673640.090541796,673640.89055934,0.8,673642.897339879,673643.361769851,0.464429971994832,77,Shorter,Ring,77,S,Ring
201,Temporal,1243,1,1,87,1200,20,7.5,1,l,l,-1600,0,-1600,-400,S,=,L,0.31863601041911,0.452554552386863,1.26515317085305,1.67615692681097,1.58669812706151,673644.797369361,673645.130945185,673645.130945185,673645.9304549,0.8,673647.230517588,673647.230517588,673648.830493364,1.6,673650.64728029,673651.113666191,0.466385900857858,77,Longer,Ring,77,L,Ring
201,Temporal,1243,1,1,88,800,3.75,3.33333333333333,1,m,m,-800,400,-800,0,S,=,L,0.233338382980418,0.303830003069432,1.86947452584898,1.70777491639409,1.04511906339741,673652.84742664,673653.100938984,673653.100938984,673656.30082994,3.2,673658.201152028,673658.201152028,673660.600571791,2.4,673662.447460196,673663.009958331,0.562498135259375,66,Shorter,Index,66,S,Index
201,Temporal,1243,1,1,89,1200,5,5,1,m,m,-800,800,-800,400,=,L,S,0.218092689713313,0.320059706846351,1.60300488916429,1.63963626827283,1.25754695782651,673664.214149351,673664.450877342,673664.450877342,673667.650730123,3.2,673669.280987098,673669.280987098,673671.680822619,2.4,673673.464220046,673673.977755279,0.513535232865252,77,Shorter,Ring,66,=,Index
201,Temporal,1243,1,1,90,1200,5,5,1,m,m,-800,0,-800,400,L,S,=,0.370909815514552,0.483685082830977,1.45193032050768,1.40652727647734,1.56996990616433,673675.38094129,673675.771049458,673675.771049458,673677.370841736,1.6,673678.851285851,673678.851285851,673681.251115598,2.4,673682.797547085,673683.273890034,0.476342948735692,66,Longer,Index,66,L,Index
201,Temporal,1243,1,1,91,1200,10,5,1,l,l,-1600,0,-1600,-400,=,L,S,0.325773190072339,0.49315048226741,1.72297737297618,1.51355864584986,1.5427125947326,673684.997597194,673685.341220532,673685.341220532,673686.941076329,1.6,673688.701535547,673688.701535547,673691.10103551,2.4,673692.764264214,673693.881848999,1.11758478544652,78,Longer,Middle,78,L,Middle
201,Temporal,1243,1,1,92,1200,10,7.5,1,m,m,-800,0,-800,400,=,L,S,0.202185280836383,0.330748109982283,1.59331438702856,1.18807273190901,1.07097934626192,673695.564345312,673695.781550265,673695.781550265,673696.581349986,0.8,673698.201215547,673698.201215547,673699.801184586,1.6,673701.130970564,673701.593810642,0.462840078049339,78,Longer,Middle,78,L,Middle
201,Temporal,1243,1,1,93,1600,15,20,2,l,l,-1600,-400,-1600,0,L,S,=,0.206724647688094,0.330239300888717,1.09001663984695,1.87978986193792,1.06774282641768,673702.81435614,673703.031560451,673703.031560451,673703.831440051,0.8,673704.951483497,673704.951483497,673705.751363417,0.8,673707.781070901,673708.273943287,0.492872385540977,77,Equals to,Ring,66,L,Index
201,Temporal,1243,1,1,94,400,1.66666666666667,1.25,2,r,r,0,400,0,400,L,S,=,0.268021249715468,0.436068288846317,1.41426767928864,1.8847705378133,1.68440906995912,673709.497731771,673709.781571117,673709.781571117,673712.181346649,2.4,673713.631838137,673713.631838137,673716.831370116,3.2,673718.864412135,673719.401895426,0.537483290187083,66,Longer,Index,66,L,Index
201,Temporal,1243,1,1,95,1600,5,5,2,l,l,-1600,0,-1600,0,=,L,S,0.23910318047396,0.385405231321878,1.58649467430042,1.69344952766791,1.06847328731865,673721.23110854,673721.481849798,673721.481849798,673724.681691351,3.2,673726.301696461,673726.301696461,673729.501699056,3.2,673731.347856267,673731.793847277,0.445991009939462,66,Equals to,Index,66,=,Index
201,Temporal,1243,1,1,96,800,1.66666666666667,5,1,m,m,-800,-400,-800,0,S,=,L,0.363463372300513,0.317524798304885,1.91686277654339,1.8553887847002,1.31360666239774,673733.014511151,673733.391947967,673733.391947967,673735.791761995,2.4,673737.741730736,673737.741730736,673739.341720306,1.6,673741.347870148,673742.00978606,0.661915912060067,66,Shorter,Index,78,=,Middle
