Subject,Task,SequenceOrder,ListNo,RunNo,TrialNo,Aud_Probe_Dist,Aud_Standard_Vel,Aud_Probe_Vel,Main_Control,Aud_Std_StartCode,Aud_Probe_StartCode,Aud_Std_StartPt,Aud_Std_EndPt,Aud_Probe_StartPt,Aud_Probe_EndPt,RespIndex,RespMiddle,RespRing,ISI_Cross_Std,ISI_Cross_Probe,ISI_Std_Probe,ISI_Probe_Response,ITI,TrialOnset,StdOnset,StdOnsetByStop,StdOffset,StdDur,ProbeOnset,ProbeOnsetByStop,ProbeOffset,ProbeDur,RespWinStart,RespTime,RT,CorrectKC,CorrectResponse,CorrectFinger,SubjRespKC,SubjResponse,SubjRespFinger
224,Temporal,1243,3,4,1,800,5,5,1,r,r,0,1200,0,800,S,=,L,0.286928860758756,0.305014548597255,1.94094663567126,1.57519245774861,1.17447916354329,698118.667062537,698118.964986645,698118.964986645,698121.364724376,2.4,698123.345067269,698123.345067269,698124.944927803,1.6,698126.667126786,698127.30312981,0.636003024526872,66,Shorter,Index,66,S,Index
224,Temporal,1243,3,4,2,1200,10,7.5,1,m,m,-800,0,-800,400,=,L,S,0.351423497583241,0.328136586971481,1.89112923673591,1.22751928907228,1.74092089975789,698128.617204748,698128.985338655,698128.985338655,698129.785192709,0.8,698131.705335472,698131.705335472,698133.305114844,1.6,698134.68386487,698135.239104115,0.555239244597033,78,Longer,Middle,78,L,Middle
224,Temporal,1243,3,4,3,400,1.25,1.25,2,r,r,0,400,0,400,=,L,S,0.406969000422404,0.261702287932515,1.05807826597307,1.04317153053425,1.89119491950192,698137.133871383,698137.555444834,698137.555444834,698140.755036985,3.2,698141.845299851,698141.845299851,698145.04533503,3.2,698146.250564451,698146.727220961,0.476656510028988,66,Equals to,Index,66,=,Index
224,Temporal,1243,3,4,4,800,2.5,3.33333333333333,1,l,l,-1600,-1200,-1600,-800,=,L,S,0.384643966837672,0.25728066322953,1.27053275538876,1.28310439719337,1.85434405414436,698148.767354595,698149.165657378,698149.165657378,698150.76548904,1.6,698152.065406062,698152.065406062,698154.465319272,2.4,698155.900636343,698156.470950081,0.570313738076948,78,Longer,Middle,78,L,Middle
224,Temporal,1243,3,4,5,400,1.66666666666667,1.25,2,l,l,-1600,-1200,-1600,-1200,=,L,S,0.248426451998699,0.206541977926797,1.17213137812934,1.91063902509344,1.47915229279347,698158.467392385,698158.735493763,698158.735493763,698161.135381629,2.4,698162.335725189,698162.335725189,698165.53562499,3.2,698167.600715838,698168.063154396,0.462438558344729,78,Longer,Middle,78,L,Middle
224,Temporal,1243,3,4,6,800,1.25,3.33333333333333,1,m,m,-800,-400,-800,0,=,L,S,0.491372460105705,0.394253804263782,1.78911737270571,1.92447463863932,1.85982065346508,698169.700752859,698170.205939864,698170.205939864,698173.405525599,3.2,698175.225813237,698175.225813237,698177.62562764,2.4,698179.684131457,698180.223127847,0.538996389717795,77,Shorter,Ring,77,S,Ring
224,Temporal,1243,3,4,7,1200,20,7.5,1,l,l,-1600,0,-1600,-400,=,L,S,0.45039819721072,0.292814193439297,1.75789754295176,1.25536168681455,1.28735746208675,698182.234218298,698182.695903247,698182.695903247,698183.495745753,0.8,698185.286029085,698185.286029085,698186.88593774,1.6,698188.284184839,698188.895197784,0.611012945650145,78,Longer,Middle,78,L,Middle
224,Temporal,1243,3,4,8,400,3.33333333333333,1.25,2,r,r,0,800,0,400,L,S,=,0.264580413595086,0.492241131543431,1.11491095157892,1.86484880802214,1.93335516158638,698190.334269755,698190.616051099,698190.616051099,698193.015975216,2.4,698194.166223594,698194.166223594,698197.36602972,3.2,698199.384261959,698199.879214779,0.494952819659375,66,Longer,Index,66,L,Index
224,Temporal,1243,3,4,9,1200,10,7.5,1,l,l,-1600,-800,-1600,-400,S,=,L,0.469446280302383,0.273220424139846,1.24066366366796,1.7869770890003,1.82087829713988,698201.967677258,698202.456224255,698202.456224255,698203.256079913,0.8,698204.526240609,698204.526240609,698206.126076442,1.6,698208.050998561,698208.839005757,0.788007196271792,77,Longer,Ring,77,L,Ring
224,Temporal,1243,3,4,10,800,15,5,1,m,m,-800,400,-800,0,S,=,L,0.257400973729914,0.466448138886616,1.41912043719353,1.66014354934725,1.1264351819296,698210.801083092,698211.076457375,698211.076457375,698211.876341906,0.8,698213.316436639,698213.316436639,698214.916322837,1.6,698216.73443516,698219.574987184,2.84055202349555,77,Longer,Ring,77,L,Ring
224,Temporal,1243,3,4,11,1200,10,5,1,l,l,-1600,0,-1600,-400,L,S,=,0.280104763001947,0.345569669430788,1.85455377450543,1.63948779482038,1.75161696941124,698220.867820432,698221.166588025,698221.166588025,698222.766470695,1.6,698224.65645581,698224.65645581,698227.056472318,2.4,698228.8344879,698229.319131422,0.48464352148585,66,Longer,Index,66,L,Index
224,Temporal,1243,3,4,12,800,2.5,3.33333333333333,1,l,l,-1600,-1200,-1600,-800,=,L,S,0.230268099416773,0.255531302138536,1.65062606684475,1.11990984981422,1.27071156417085,698231.217883052,698231.46676838,698231.46676838,698233.066644634,1.6,698234.746680134,698234.746680134,698237.146582758,2.4,698238.417857645,698239.279180966,0.861323321703821,78,Longer,Middle,78,L,Middle
224,Temporal,1243,3,4,13,400,5,5,2,m,m,-800,0,-800,-400,=,L,S,0.372833360637888,0.317432737494017,1.19246077414244,1.16536549576854,1.12620507742997,698240.701276728,698241.086807095,698241.086807095,698242.686689764,1.6,698243.907120352,698243.907120352,698244.7069003,0.8,698246.01791263,NaN,NaN,77,Shorter,Ring,999,Missed,Missed
224,Temporal,1243,3,4,14,400,2.5,1.25,2,m,m,-800,0,-800,-400,=,L,S,0.220125162452346,0.208789775635289,1.94623693585904,1.841907688168,1.33379430806987,698250.217981539,698250.457041338,698250.457041338,698253.656986051,3.2,698255.627024457,698255.627024457,698258.826918484,3.2,698260.801340696,698261.199084366,0.397743670037016,66,Equals to,Index,78,L,Middle
224,Temporal,1243,3,4,15,1200,5,5,1,l,l,-1600,0,-1600,-400,L,S,=,0.419261312965334,0.28536590414508,1.12638847429683,1.00391247640316,1.97223657636447,698262.684762475,698263.117083761,698263.117083761,698266.316957256,3.2,698267.477367684,698267.477367684,698269.877026498,2.4,698271.01807239,698271.895200992,0.877128602471203,78,Shorter,Middle,78,S,Middle
224,Temporal,1243,3,4,16,800,15,5,1,l,l,-1600,-400,-1600,-800,S,=,L,0.39483467166115,0.465725432870587,1.82047618681306,1.4382263967962,1.66443614854317,698274.018181142,698274.427449905,698274.427449905,698275.227354005,0.8,698277.067128769,698277.067128769,698278.667202958,1.6,698280.251512101,698280.895210616,0.643698515370488,77,Longer,Ring,77,L,Ring
224,Temporal,1243,3,4,17,800,1.66666666666667,5,1,r,r,0,400,0,800,S,=,L,0.222738799315523,0.416229210643118,1.61124634367532,1.48245039358391,1.06760986917167,698282.718181077,698282.957433679,698282.957433679,698285.357525897,2.4,698286.9976103,698286.9976103,698288.597448378,1.6,698290.234939014,698290.623271759,0.388332744594663,66,Shorter,Index,78,=,Middle
224,Temporal,1243,3,4,18,800,5,5,1,m,m,-800,-400,-800,0,S,=,L,0.349383785273872,0.403254678372468,1.95103723592885,1.82042832359265,1.55102169004144,698291.851629643,698292.217849002,698292.217849002,698293.017358515,0.8,698294.997828766,698294.997828766,698296.597620328,1.6,698298.568273757,698299.055208127,0.486934369662777,77,Longer,Ring,77,L,Ring
224,Temporal,1243,3,4,19,1200,5,5,1,r,r,0,800,0,1200,S,=,L,0.43219782623053,0.393483763433019,1.85788887230999,1.75774933948769,1.55707310519288,698300.751681805,698301.197831268,698301.197831268,698302.797500925,1.6,698304.687894742,698304.687894742,698307.08773898,2.4,698308.985055209,698309.407170121,0.422114912187681,77,Longer,Ring,77,L,Ring
224,Temporal,1243,3,4,20,1600,6.66666666666667,5,2,m,m,-800,800,-800,800,L,S,=,0.373534547331957,0.2795952184813,1.52947811944472,1.42456348624181,1.104263261894,698311.118418664,698311.508114646,698311.508114646,698313.907735926,2.4,698315.467773133,698315.467773133,698318.667799971,3.2,698320.235066178,698320.703106584,0.468040405656211,66,Longer,Index,66,L,Index
224,Temporal,1243,3,4,21,800,5,5,1,r,r,0,1200,0,800,S,=,L,0.234824592944251,0.402796870782477,1.98090131294599,1.66369996747658,1.89200075243779,698321.951824498,698322.19824767,698322.19824767,698324.598059506,2.4,698326.618110648,698326.618110648,698328.217981128,1.6,698330.035199297,698330.519208992,0.48400969512295,66,Shorter,Index,66,S,Index
224,Temporal,1243,3,4,22,1200,2.5,5,1,r,r,0,800,0,1200,L,S,=,0.308647519246291,0.378932963397524,1.75873091185541,1.74043274152016,1.78765665763529,698332.568509547,698332.88827515,698332.88827515,698336.08822692,3.2,698337.878231475,698337.878231475,698340.278282631,2.4,698342.151882178,698344.575166512,2.42328433401417,78,Shorter,Middle,78,S,Middle
224,Temporal,1243,3,4,23,1600,6.66666666666667,5,2,m,m,-800,800,-800,800,S,=,L,0.413264091177569,0.226025507007012,1.00555024621009,1.58606568763392,1.23860561122192,698346.51865657,698346.94865172,698346.94865172,698349.348503336,2.4,698350.388659791,698350.388659791,698353.588532965,3.2,698355.318635141,698355.84724941,0.528614269453101,77,Longer,Ring,77,L,Ring
224,Temporal,1243,3,4,24,800,7.5,3.33333333333333,1,m,m,-800,400,-800,0,=,L,S,0.345136071409781,0.416425605240125,1.61623555169759,1.67915666036554,1.61093567993959,698357.235403983,698357.598794188,698357.598794188,698359.198681991,1.6,698360.848675652,698360.848675652,698363.248582767,2.4,698365.084956111,698365.54325183,0.458295719348826,78,Longer,Middle,78,L,Middle
224,Temporal,1243,3,4,25,400,5,5,2,r,r,0,400,0,400,L,S,=,0.3851185702585,0.255908586328048,1.66511149266611,1.9467371702748,1.54603321355292,698380.435506896,698380.839132429,698380.839132429,698381.638944779,0.8,698383.329155161,698383.329155161,698384.129007932,0.8,698386.235533266,698386.727134987,0.491601720335893,77,Equals to,Ring,77,=,Ring
224,Temporal,1243,3,4,26,800,2.5,3.33333333333333,1,m,m,-800,-400,-800,0,=,L,S,0.497044361621617,0.432284002158683,1.82866772336361,1.80542213635763,1.87061768051916,698388.435568169,698388.949207991,698388.949207991,698390.549060505,1.6,698392.409341265,698392.409341265,698394.809229132,2.4,698396.752302557,698397.311273694,0.558971136226319,78,Longer,Middle,78,L,Middle
224,Temporal,1243,3,4,27,1200,2.5,5,1,m,m,-800,0,-800,400,=,L,S,0.218665519341544,0.416363410358671,1.87309862671075,1.90829871670639,1.85001988122946,698399.335657545,698399.569084379,698399.569084379,698402.769084591,3.2,698404.669500909,698404.669500909,698407.069324615,2.4,698409.119072332,698409.983105275,0.864032943500206,77,Shorter,Ring,77,S,Ring
224,Temporal,1243,3,4,28,1600,5,5,2,r,r,0,1200,0,1600,S,=,L,0.495203877493599,0.482414972929828,1.82929578458472,1.49088156852109,1.39564725235085,698411.985764404,698412.499560135,698412.499560135,698414.899478478,2.4,698416.759612311,698416.759612311,698419.959618618,3.2,698421.585754267,698422.967231022,1.38147675502114,77,Longer,Ring,77,L,Ring
224,Temporal,1243,3,4,29,800,1.25,3.33333333333333,1,l,l,-1600,-1200,-1600,-800,S,=,L,0.403515029277789,0.248520843370671,1.20866082290063,1.29960675247808,1.52442434142793,698424.519177874,698424.939635254,698424.939635254,698428.139698664,3.2,698429.379623436,698429.379623436,698431.779643152,2.4,698433.235896015,698434.183236419,0.94734040426556,66,Shorter,Index,78,=,Middle
224,Temporal,1243,3,4,30,1200,5,5,1,m,m,-800,800,-800,400,L,S,=,0.43773949666571,0.208916085349321,1.55395742166005,1.6876708013594,1.55290993515981,698435.852561354,698436.309903824,698436.309903824,698439.509864897,3.2,698441.089987527,698441.089987527,698443.489933459,2.4,698445.319240174,698445.791340331,0.472100156941451,78,Shorter,Middle,77,=,Ring
224,Temporal,1243,3,4,31,800,7.5,3.33333333333333,1,m,m,-800,400,-800,0,S,=,L,0.340991775029154,0.426454926849617,1.03109266070801,1.88779022213989,1.57015396584801,698447.502662337,698447.859799787,698447.859799787,698449.459802437,1.6,698450.520186431,698450.520186431,698452.920015591,2.4,698454.95264094,698456.423357156,1.47071621648502,77,Longer,Ring,78,=,Middle
224,Temporal,1243,3,4,32,1600,7.5,20,2,l,l,-1600,-400,-1600,0,=,L,S,0.469896017758666,0.437659444388206,1.3877332031836,1.27961442599181,1.70805248117988,698458.136077218,698458.620121116,698458.620121116,698460.220033299,1.6,698461.640271662,698461.640271662,698462.440229977,0.8,698463.869370644,698464.32727306,0.457902415888384,77,Shorter,Ring,77,S,Ring
224,Temporal,1243,3,4,33,1600,7.5,20,2,l,l,-1600,-400,-1600,0,S,=,L,0.222681393404588,0.47337625029268,1.16892395973379,1.62110955356793,1.29223810619509,698466.186119789,698466.420480478,698466.420480478,698468.020329785,1.6,698469.220180913,698469.220180913,698470.020064802,0.8,698471.786156185,698472.271244963,0.485088777495548,66,Shorter,Index,66,S,Index
224,Temporal,1243,3,4,34,800,2.5,3.33333333333333,1,l,l,-1600,-1200,-1600,-800,L,S,=,0.330635360198346,0.400436640604716,1.70655761569451,1.66864396716128,1.72909640650178,698473.702848659,698474.050534315,698474.050534315,698475.650348013,1.6,698477.390297165,698477.390297165,698479.790531499,2.4,698481.602820942,698482.99914795,1.39632700779475,66,Longer,Index,77,=,Ring
224,Temporal,1243,3,4,35,400,10,5,2,r,r,0,800,0,400,=,L,S,0.21320628865389,0.382575217280451,1.61458185471568,1.33202023951742,1.0064961389388,698484.869583657,698485.100625968,698485.100625968,698485.900502158,0.8,698487.550765293,698487.550765293,698488.350593041,0.8,698489.836280416,698490.335251089,0.498970672488213,66,Equals to,Index,78,L,Middle
224,Temporal,1243,3,4,36,800,3.75,3.33333333333333,1,r,r,0,1200,0,800,=,L,S,0.228231598068868,0.262924840988107,1.73704523046032,1.42545750297204,1.51373331246549,698491.486294048,698491.730913349,698491.730913349,698494.930477591,3.2,698496.700637646,698496.700637646,698499.100702595,2.4,698500.669616763,698503.055278062,2.38566129829269,77,Shorter,Ring,66,=,Index
224,Temporal,1243,3,4,37,400,2.5,5,2,r,r,0,400,0,400,L,S,=,0.326022323828084,0.282755966273573,1.11327202722746,1.74155137285392,1.19776403646313,698504.719672807,698505.061004977,698505.061004977,698506.660877702,1.6,698507.801123148,698507.801123148,698508.600947367,0.8,698510.486410886,698512.631285397,2.14487451070454,78,Shorter,Middle,77,=,Ring
224,Temporal,1243,3,4,38,1200,10,5,1,l,l,-1600,0,-1600,-400,=,L,S,0.482423793962581,0.480386352990754,1.13735555115526,1.64683050316367,1.16718189725365,698513.986401517,698514.481019695,698514.481019695,698516.080860661,1.6,698517.251035986,698517.251035986,698519.65093893,2.4,698521.453093912,698522.111226279,0.658132366836071,78,Longer,Middle,78,L,Middle
224,Temporal,1243,3,4,39,800,1.66666666666667,5,1,m,m,-800,-400,-800,0,=,L,S,0.280389962181091,0.474745442039507,1.76539214784032,1.42742929036653,1.12950691900836,698523.436502025,698523.731087866,698523.731087866,698526.131020003,2.4,698527.931200403,698527.931200403,698529.531028216,1.6,698531.119821531,698531.65535037,0.535528839100152,77,Shorter,Ring,77,S,Ring
224,Temporal,1243,3,4,40,800,7.5,3.33333333333333,1,l,l,-1600,-400,-1600,-800,L,S,=,0.321486304725848,0.314904408920572,1.71386747410043,1.85134374286411,1.60125794145486,698532.936535067,698533.271161188,698533.271161188,698534.871134324,1.6,698536.611407487,698536.611407487,698539.011275785,2.4,698541.003238498,698542.367307565,1.3640690674074,66,Longer,Index,77,=,Ring
224,Temporal,1243,3,4,41,1200,5,5,1,r,r,0,800,0,1200,=,L,S,0.45113477192046,0.220913347830252,1.15599794881573,1.32549017082473,1.01680454914787,698544.119987386,698544.58124214,698544.58124214,698546.181359957,1.6,698547.371437848,698547.371437848,698549.771337585,2.4,698551.236692566,698551.855220381,0.618527814978734,78,Longer,Middle,78,L,Middle
224,Temporal,1243,3,4,42,800,1.25,3.33333333333333,1,m,m,-800,-400,-800,0,S,=,L,0.284123630783145,0.356739779102409,1.48566343719478,1.38419319420216,1.79550024101245,698553.020037303,698553.321575248,698553.321575248,698556.521462858,3.2,698558.041914361,698558.041914361,698560.441705025,2.4,698561.970034191,NaN,NaN,66,Shorter,Index,999,Missed,Missed
224,Temporal,1243,3,4,43,800,1.66666666666667,5,1,m,m,-800,-400,-800,0,L,S,=,0.22920681133793,0.287264171143726,1.93121884036347,1.38269003537121,1.37805675091016,698566.836756934,698567.081716927,698567.081716927,698569.481761666,2.4,698571.4519393,698571.4519393,698573.051923344,1.6,698574.586842991,698575.103352832,0.516509841079824,78,Shorter,Middle,77,=,Ring
224,Temporal,1243,3,4,44,800,15,5,1,m,m,-800,400,-800,0,S,=,L,0.44110600059909,0.248266414575486,1.98033021597259,1.77465582106744,1.83846139206394,698576.620205051,698577.072129113,698577.072129113,698577.87201621,0.8,698579.882160019,698579.882160019,698581.482008042,1.6,698583.403509447,698583.911307185,0.507797738071531,77,Longer,Ring,77,L,Ring
224,Temporal,1243,3,4,45,1600,5,5,2,m,m,-800,800,-800,800,L,S,=,0.375869894554219,0.305873093656827,1.6861087993836,1.44929942885838,1.90373542298711,698585.903584515,698586.292148707,698586.292148707,698589.492029901,3.2,698591.202251601,698591.202251601,698594.402205938,3.2,698596.003654451,698596.455355247,0.451700795209035,77,Equals to,Ring,77,=,Ring
224,Temporal,1243,3,4,46,400,2.5,5,2,m,m,-800,-400,-800,-400,L,S,=,0.227649364373481,0.495198732840071,1.92089286903208,1.11405782760373,1.29507800844024,698598.503674147,698598.742548202,698598.742548202,698600.342071253,1.6,698602.292531424,698602.292531424,698603.092352115,0.8,698604.35364396,698606.479337454,2.12569349410478,78,Shorter,Middle,78,S,Middle
224,Temporal,1243,3,4,47,1600,3.75,5,2,l,l,-1600,-400,-1600,0,S,=,L,0.209028606893622,0.360674732974141,1.75881693495632,1.65539555478777,1.85121780373377,698607.937034877,698608.162497798,698608.162497798,698611.362384125,3.2,698613.142619933,698613.142619933,698616.342524546,3.2,698618.137132755,698618.495377241,0.358244485454634,78,Equals to,Middle,78,=,Middle
224,Temporal,1243,3,4,48,1200,10,5,1,l,l,-1600,0,-1600,-400,S,=,L,0.279090702404994,0.266246044643777,1.5490028812026,1.17718350293025,1.64439902966969,698620.503835735,698620.802688341,698620.802688341,698622.402423121,1.6,698623.982570453,698623.982570453,698626.382592094,2.4,698627.720490211,698628.599349862,0.878859650925733,77,Longer,Ring,77,L,Ring
224,Temporal,1243,3,4,49,1200,6.66666666666667,7.5,1,r,r,0,1600,0,1200,S,=,L,0.449110157262142,0.473314363120963,1.13144299792367,1.2787858608285,1.77676358774645,698631.003907643,698631.472957616,698631.472957616,698633.872585633,2.4,698635.032928693,698635.032928693,698636.632769979,1.6,698638.070541828,698638.519361694,0.448819865123369,66,Shorter,Index,77,L,Ring
224,Temporal,1243,3,4,50,1200,3.33333333333333,7.5,1,l,l,-1600,-800,-1600,-400,S,=,L,0.491010681696066,0.388632655299258,1.94202153974299,1.25639250740739,1.91486884836677,698640.437297935,698640.942756659,698640.942756659,698643.342770281,2.4,698645.313036457,698645.313036457,698646.912888971,1.6,698648.304021961,698649.055347997,0.751326035708189,66,Shorter,Index,66,S,Index
224,Temporal,1243,3,4,51,1600,5,5,2,r,r,0,1200,0,1600,=,L,S,0.418374085730851,0.350362624588688,1.2156693360719,1.88307744680531,1.6994003341786,698651.120662675,698651.552882587,698651.552882587,698653.952913852,2.4,698655.203077025,698655.203077025,698658.402972335,3.2,698660.437425118,698661.03130612,0.593881001928821,78,Longer,Middle,78,L,Middle
224,Temporal,1243,3,4,52,1200,20,7.5,1,m,m,-800,800,-800,400,L,S,=,0.426536962178571,0.201725261004416,1.89533528451689,1.1619637814926,1.30270967543702,698662.887404858,698663.333306662,698663.333306662,698664.133213007,0.8,698666.06324578,698666.06324578,698667.663237523,1.6,698668.970748297,698669.495426003,0.52467770606745,66,Longer,Index,66,L,Index
224,Temporal,1243,3,4,53,1200,5,5,1,r,r,0,800,0,1200,=,L,S,0.413897510939826,0.239361967584915,1.67054938960448,1.31207461117716,1.83890556117969,698670.954161863,698671.383640841,698671.383640841,698672.983203672,1.6,698674.693502364,698674.693502364,698677.093513419,2.4,698678.554213145,698679.063351048,0.509137903456576,78,Longer,Middle,78,L,Middle
224,Temporal,1243,3,4,54,1200,10,7.5,1,m,m,-800,0,-800,400,=,L,S,0.272249256938498,0.45164013368452,1.87252737472165,1.80107363522019,1.64537069293762,698681.054246811,698681.34372375,698681.34372375,698682.143480601,0.8,698684.04368166,698684.04368166,698685.643460069,1.6,698687.587536964,698688.375349434,0.787812469294295,78,Longer,Middle,78,L,Middle
224,Temporal,1243,3,4,55,1600,20,20,2,l,l,-1600,0,-1600,0,L,S,=,0.314770802084161,0.314386206011143,1.83035309522146,1.4996048613195,1.47018786153156,698690.170962849,698690.503768097,698690.503768097,698691.303434161,0.8,698693.163829447,698693.163829447,698693.963639873,0.8,698695.60432488,698696.839403231,1.23507835145574,77,Equals to,Ring,77,=,Ring
224,Temporal,1243,3,4,56,1600,15,20,2,m,m,-800,400,-800,800,L,S,=,0.336048149135673,0.332697130916111,1.77587866827726,1.47265461266551,1.69956678092991,698698.454310715,698698.803941074,698698.803941074,698699.60379609,0.8,698701.413826079,698701.413826079,698702.213643562,0.8,698703.820986941,698704.287436168,0.466449226951227,77,Equals to,Ring,77,=,Ring
224,Temporal,1243,3,4,57,1600,15,20,2,r,r,0,1200,0,1600,S,=,L,0.283031198502413,0.224100080250532,1.28718698127965,1.8410863577753,1.43955014238155,698706.137687324,698706.434143763,698706.434143763,698707.233949697,0.8,698708.554121525,698708.554121525,698709.353938366,0.8,698711.337728002,698712.887490833,1.54976283095311,78,Equals to,Middle,66,S,Index
224,Temporal,1243,3,4,58,400,1.25,1.25,2,r,r,0,400,0,400,L,S,=,0.398487506756582,0.47668754087149,1.15391848332496,1.03862483479456,1.61778218043998,698714.471093084,698714.884018746,698714.884018746,698718.083915339,3.2,698719.273929069,698719.273929069,698722.473975797,3.2,698723.654447633,698726.071443283,2.41699564934243,77,Equals to,Ring,66,L,Index
224,Temporal,1243,3,4,59,1600,20,20,2,r,r,0,1600,0,1600,S,=,L,0.213400652068584,0.437003798813868,1.44627465016558,1.40271096521116,1.49733486884713,698727.837842208,698728.064205299,698728.064205299,698728.864145008,0.8,698730.334280617,698730.334280617,698731.134107724,0.8,698732.687912817,698733.175413979,0.487501161755063,78,Equals to,Middle,78,=,Middle
224,Temporal,1243,3,4,60,400,5,5,2,m,m,-800,-400,-800,-400,S,=,L,0.399856407929216,0.305502180579624,1.4804459757174,1.4166915622543,1.86173648401891,698734.804562712,698735.224495061,698735.224495061,698736.024311902,0.8,698737.534582428,698737.534582428,698738.334360452,0.8,698739.904170941,698740.247434385,0.343263443442993,78,Equals to,Middle,78,=,Middle
224,Temporal,1243,3,4,61,400,10,5,2,r,r,0,800,0,400,=,L,S,0.456144313190903,0.368328988707507,1.39563526257435,1.35743560980139,1.98893763924874,698742.254653075,698742.724519442,698742.724519442,698743.524480323,0.8,698744.944422264,698744.944422264,698745.744405923,0.8,698747.238001856,698747.823375314,0.58537345728837,66,Equals to,Index,66,=,Index
224,Temporal,1243,3,4,62,1200,5,5,1,l,l,-1600,-800,-1600,-400,S,=,L,0.209814413344504,0.342359307206099,1.6485480225545,1.92499834217111,1.74750644476195,698749.954697923,698750.174671919,698750.174671919,698751.774415361,1.6,698753.454706861,698753.454706861,698755.854504903,2.4,698757.921345406,698759.951536418,2.0301910120761,77,Longer,Ring,77,L,Ring
224,Temporal,1243,3,4,63,400,3.33333333333333,1.25,2,r,r,0,800,0,400,=,L,S,0.473902976743551,0.21895715390413,1.46915976492569,1.02635142618825,1.59358518667062,698761.854735329,698762.345010166,698762.345010166,698764.744791848,2.4,698766.234850875,698766.234850875,698769.434909794,3.2,698770.604816204,698771.26343343,0.658617225592025,78,Longer,Middle,78,L,Middle
224,Temporal,1243,3,4,64,800,5,5,1,l,l,-1600,-400,-1600,-800,S,=,L,0.209445796260225,0.254363085615117,1.9142364382952,1.45076824342855,1.53273892151115,698773.004893837,698773.225096565,698773.225096565,698775.624961975,2.4,698777.565049651,698777.565049651,698779.164912751,1.6,698780.771510908,698781.231421545,0.459910637349822,66,Shorter,Index,66,S,Index
224,Temporal,1243,3,4,65,1600,5,5,2,m,m,-800,800,-800,800,=,L,S,0.473005834034823,0.457077863447004,1.96423793927659,1.48368003444541,1.13536834878641,698782.921317817,698783.40511213,698783.40511213,698786.604984342,3.2,698788.605295244,698788.605295244,698791.804996147,3.2,698793.438309618,698794.079559577,0.641249959124252,66,Equals to,Index,78,L,Middle
224,Temporal,1243,3,4,66,800,3.75,3.33333333333333,1,r,r,0,1200,0,800,S,=,L,0.369947795334724,0.413770922778447,1.6805337402787,1.92954150603661,1.12703761783953,698795.371659247,698795.755500269,698795.755500269,698798.955316981,3.2,698800.665533228,698800.665533228,698803.065351481,2.4,698805.154995242,698805.66346474,0.508469497784972,66,Shorter,Index,66,S,Index
224,Temporal,1243,3,4,67,800,7.5,3.33333333333333,1,r,r,0,1200,0,800,S,=,L,0.204310077674333,0.449502179807737,1.82187853020839,1.99872494815886,1.53094452850036,698806.938434447,698807.155405824,698807.155405824,698808.755384093,1.6,698810.615424893,698810.615424893,698813.015442043,2.4,698815.171726038,698815.615458301,0.443732263636775,77,Longer,Ring,77,L,Ring
224,Temporal,1243,3,4,68,1200,20,7.5,1,r,r,0,1600,0,1200,L,S,=,0.279853693595871,0.418207444853887,1.30133292449756,1.27543255485542,1.35429566206543,698817.305114613,698817.595469715,698817.595469715,698818.395506627,0.8,698819.725974921,698819.725974921,698821.325438302,1.6,698822.738475984,698823.303498091,0.565022106515244,66,Longer,Index,66,L,Index
224,Temporal,1243,3,4,69,800,3.75,3.33333333333333,1,l,l,-1600,-400,-1600,-800,S,=,L,0.372066370241221,0.36711375113322,1.99870286842725,1.41432613154484,1.02870564603796,698824.805186152,698825.196043117,698825.196043117,698828.395582336,3.2,698830.415676466,698830.415676466,698832.815719922,2.4,698834.388575836,698834.807307617,0.418731780606322,66,Shorter,Index,66,S,Index
224,Temporal,1243,3,4,70,800,1.25,3.33333333333333,1,m,m,-800,-400,-800,0,L,S,=,0.437943094628935,0.260305833899096,1.95275205761444,1.46026759065879,1.51323368678366,698835.988561157,698836.446091398,698836.446091398,698839.645993123,3.2,698841.625939825,698841.625939825,698844.025988093,2.4,698845.638594553,698846.127477154,0.488882601144724,78,Shorter,Middle,78,S,Middle
224,Temporal,1243,3,4,71,1200,6.66666666666667,7.5,1,l,l,-1600,0,-1600,-400,L,S,=,0.322093675242114,0.303572661675215,1.51391754061724,1.64475404343385,1.95736366300034,698847.805315756,698848.146158061,698848.146158061,698850.546046248,2.4,698852.086159074,698852.086159074,698853.686078957,1.6,698855.488723677,698855.959392542,0.470668864552863,78,Shorter,Middle,78,S,Middle
224,Temporal,1243,3,4,72,800,5,5,1,m,m,-800,-400,-800,0,L,S,=,0.206491693128929,0.298314629421296,1.41272121818072,1.27630130595952,1.83194312491623,698858.05542531,698858.276590765,698858.276590765,698859.076053761,0.8,698860.516528324,698860.516528324,698862.116346192,1.6,698863.538712159,698864.407458843,0.86874668370001,66,Longer,Index,66,L,Index
224,Temporal,1243,3,4,73,400,2.5,1.25,2,m,m,-800,0,-800,-400,S,=,L,0.206247869219266,0.289385436731196,1.25035049490574,1.54812943068148,1.33361292252543,698876.622215357,698876.846727741,698876.846727741,698880.046589045,3.2,698881.316734022,698881.316734022,698884.516591798,3.2,698886.22219752,698886.639522313,0.417324792360887,78,Equals to,Middle,78,=,Middle
224,Temporal,1243,3,4,74,800,5,5,1,l,l,-1600,-400,-1600,-800,L,S,=,0.462413696671892,0.357184449191235,1.69475779929531,1.78748004435995,1.12012699112988,698888.122289783,698888.596766077,698888.596766077,698890.996663889,2.4,698892.716839759,698892.716839759,698894.316693877,1.6,698896.255597837,698896.703308689,0.447710852022283,78,Shorter,Middle,78,S,Middle
224,Temporal,1243,3,4,75,1200,3.33333333333333,7.5,1,l,l,-1600,-800,-1600,-400,=,L,S,0.392979709073336,0.230535455497685,1.96359893749625,1.32306297034398,1.92932506636389,698897.97235744,698898.377392899,698898.377392899,698900.776876234,2.4,698902.767023161,698902.767023161,698904.366935345,1.6,698905.838614378,698906.487532666,0.648918287246488,77,Shorter,Ring,77,S,Ring
224,Temporal,1243,3,4,76,800,5,5,1,r,r,0,400,0,800,=,L,S,0.4661996245927,0.345707555293527,1.01169980891004,1.52645266847943,1.35518525758001,698908.555760869,698909.036919792,698909.036919792,698909.836920133,0.8,698910.887053214,698910.887053214,698912.486913107,1.6,698914.155765168,698914.631475632,0.475710464525037,78,Longer,Middle,78,L,Middle
224,Temporal,1243,3,4,77,800,3.75,3.33333333333333,1,l,l,-1600,-400,-1600,-800,=,L,S,0.238734489323143,0.277034028658566,1.90032525510663,1.98427157767526,1.2869215884782,698916.139145691,698916.397033369,698916.397033369,698919.59710512,3.2,698921.517273547,698921.517273547,698923.917022828,2.4,698926.055867297,698926.58351186,0.52764456323348,77,Shorter,Ring,78,L,Middle
224,Temporal,1243,3,4,78,1200,6.66666666666667,7.5,1,l,l,-1600,0,-1600,-400,L,S,=,0.362010632027466,0.34218991449864,1.40858684180439,1.83560411053449,1.30773711140532,698928.022557845,698928.397616267,698928.397616267,698930.797149006,2.4,698932.227256205,698932.227256205,698933.827297672,1.6,698935.805864969,698937.191526268,1.38566129829269,78,Shorter,Middle,77,=,Ring
224,Temporal,1243,3,4,79,1200,6.66666666666667,7.5,1,r,r,0,1600,0,1200,S,=,L,0.345747050962538,0.309717308700906,1.80156659045336,1.46280533031459,1.40811878636329,698938.63928941,698938.997543894,698938.997543894,698941.397373054,2.4,698943.227833649,698943.227833649,698944.827366003,1.6,698946.439328213,698948.151516143,1.71218793024309,66,Shorter,Index,77,L,Ring
224,Temporal,1243,3,4,80,800,15,5,1,l,l,-1600,-400,-1600,-800,=,L,S,0.267884161913553,0.481798965080688,1.10799165069572,1.21679078050099,1.32347396098365,698949.706017222,698949.987782846,698949.987782846,698950.787574665,0.8,698951.927766537,698951.927766537,698953.527764375,1.6,698954.889321651,698956.703546083,1.81422443198971,78,Longer,Middle,66,=,Index
224,Temporal,1243,3,4,81,1600,3.75,5,2,r,r,0,1200,0,1600,=,L,S,0.429578135476361,0.403206942229563,1.27024518268717,1.43425789110245,1.63242757616618,698958.18937561,698958.637757214,698958.637757214,698961.837706098,3.2,698963.137998137,698963.137998137,698966.337860724,3.2,698967.922797792,698968.335693154,0.412895361543633,66,Equals to,Index,66,=,Index
224,Temporal,1243,3,4,82,1600,10,20,2,m,m,-800,800,-800,800,L,S,=,0.293040406298744,0.363589011776706,1.13801813107318,1.63378927487782,1.66291232000186,698970.122797292,698970.428050447,698970.428050447,698972.028071382,1.6,698973.188021459,698973.188021459,698973.987885137,0.8,698975.772821039,698976.207534295,0.43471325666178,78,Shorter,Middle,78,S,Middle
224,Temporal,1243,3,4,83,1200,10,5,1,l,l,-1600,0,-1600,-400,=,L,S,0.455333763408002,0.383098782383909,1.48798363562413,1.15041604997701,1.63579021801676,698978.022880302,698978.498048836,698978.498048836,698980.097952358,1.6,698981.608411837,698981.608411837,698984.008232014,2.4,698985.306196037,698986.295522949,0.989326912094839,78,Longer,Middle,78,L,Middle
224,Temporal,1243,3,4,84,1600,10,20,2,m,m,-800,800,-800,800,=,L,S,0.442349815847637,0.402154870050154,1.19934305028175,1.98517646539876,1.84850691372678,698988.08961095,698988.548265602,698988.548265602,698990.148144102,1.6,698991.368540684,698991.368540684,698992.168099279,0.8,698994.306254102,NaN,NaN,77,Shorter,Ring,999,Missed,Missed
224,Temporal,1243,3,4,85,1200,10,7.5,1,l,l,-1600,-800,-1600,-400,=,L,S,0.223028940215799,0.291557336178523,1.44381678777178,1.13948702610158,1.92946929763624,698999.222988619,698999.458432978,698999.458432978,699000.258271633,0.8,699001.728684095,699001.728684095,699003.328226073,1.6,699004.60639322,699005.575547946,0.96915472636465,78,Longer,Middle,78,L,Middle
224,Temporal,1243,3,4,86,1200,20,7.5,1,r,r,0,1600,0,1200,S,=,L,0.346929400899608,0.404715081898172,1.78021561437709,1.93708560139936,1.45958490798363,699007.639753611,699007.998824536,699007.998824536,699008.798643302,0.8,699010.59868287,699010.59868287,699012.198538271,1.6,699014.273100161,699015.055491716,0.782391554443166,77,Longer,Ring,77,L,Ring
224,Temporal,1243,3,4,87,400,5,5,2,r,r,0,800,0,400,S,=,L,0.314082308539661,0.292801682164142,1.18446252357461,1.56916596343941,1.8306173415238,699016.656485369,699016.988922015,699016.988922015,699018.588712935,1.6,699019.808669056,699019.808669056,699020.608563852,0.8,699022.323169921,699022.703505341,0.38033541967161,66,Shorter,Index,66,S,Index
224,Temporal,1243,3,4,88,1200,3.33333333333333,7.5,1,m,m,-800,0,-800,400,L,S,=,0.245198956563076,0.240271618315151,1.2411011020225,1.53202679426071,1.50323767245394,699024.689827299,699024.948796081,699024.948796081,699027.348669191,2.4,699028.609004358,699028.609004358,699030.208877725,1.6,699031.889842954,699032.391586835,0.50174388056621,78,Shorter,Middle,78,S,Middle
224,Temporal,1243,3,4,89,800,1.66666666666667,5,1,m,m,-800,-400,-800,0,L,S,=,0.337413197928533,0.293276266404596,1.49252966383578,1.72151985092861,1.51090037525142,699034.039933774,699034.389189436,699034.389189436,699036.789061583,2.4,699038.31909673,699038.31909673,699039.91881932,1.6,699041.789963546,699042.183673993,0.393710447358899,78,Shorter,Middle,78,S,Middle
224,Temporal,1243,3,4,90,400,1.66666666666667,1.25,2,l,l,-1600,-1200,-1600,-1200,L,S,=,0.310216379029024,0.457371744752964,1.94995428799784,1.5873405393233,1.56192179373732,699043.856637365,699044.179004352,699044.179004352,699046.579013161,2.4,699048.559320445,699048.559320445,699051.759043163,3.2,699053.489985198,699054.215584825,0.72559962735977,66,Longer,Index,66,L,Index
224,Temporal,1243,3,4,91,800,5,5,1,r,r,0,400,0,800,L,S,=,0.394508376569574,0.495247101533652,1.97452061876497,1.53760811600693,1.87677383701025,699055.92339896,699056.329280916,699056.329280916,699057.12912695,0.8,699059.129319155,699059.129319155,699060.729138948,1.6,699062.406762769,699063.919665044,1.51290227484424,66,Longer,Index,77,=,Ring
224,Temporal,1243,3,4,92,1200,5,5,1,r,r,0,1600,0,1200,L,S,=,0.40700276336742,0.467400017439185,1.72238799225365,1.7024462945872,1.93488767299077,699065.956765814,699066.379454373,699066.379454373,699069.57935642,3.2,699071.329628665,699071.329628665,699073.729608602,2.4,699075.573467865,699076.791392942,1.21792507730424,78,Shorter,Middle,78,S,Middle
224,Temporal,1243,3,4,93,1200,5,5,1,m,m,-800,800,-800,400,L,S,=,0.413128042871238,0.262523987592109,1.09889747594235,1.08515061514624,1.80328535097891,699078.87356032,699079.299782836,699079.299782836,699082.499636121,3.2,699083.619714659,699083.619714659,699086.019527458,2.4,699087.256873667,699087.775521255,0.51864758785814,78,Shorter,Middle,77,=,Ring
224,Temporal,1243,3,4,94,1200,2.5,5,1,r,r,0,800,0,1200,L,S,=,0.369353534161111,0.426332875448235,1.05994718456405,1.67485587218996,1.2323922071793,699089.723604559,699090.109741241,699090.109741241,699093.309750114,3.2,699094.399902945,699094.399902945,699096.799777979,2.4,699098.606967951,699100.439659359,1.83269140822813,78,Shorter,Middle,78,S,Middle
224,Temporal,1243,3,4,95,1200,3.33333333333333,7.5,1,l,l,-1600,-800,-1600,-400,L,S,=,0.365615967854503,0.459014635095669,1.54999624879896,1.42251732537229,1.3269420986206,699101.823719855,699102.200144252,699102.200144252,699104.600037252,2.4,699106.190243656,699106.190243656,699107.790119909,1.6,699109.357084484,699110.21576255,0.85867806582246,78,Shorter,Middle,77,=,Ring
224,Temporal,1243,3,4,96,1200,2.5,5,1,l,l,-1600,-800,-1600,-400,S,=,L,0.440711712385364,0.236693913019149,1.50327511684701,1.14273764475177,1.37930473209715,699111.707074907,699112.160006127,699112.160006127,699115.36007082,3.2,699116.890368063,699116.890368063,699119.290275178,2.4,699120.573784497,699121.439630808,0.865846311440691,66,Shorter,Index,78,=,Middle
