Subject,Task,SequenceOrder,ListNo,RunNo,TrialNo,Aud_Probe_Dist,Aud_Standard_Vel,Aud_Probe_Vel,Main_Control,Aud_Std_StartCode,Aud_Probe_StartCode,Aud_Std_StartPt,Aud_Std_EndPt,Aud_Probe_StartPt,Aud_Probe_EndPt,RespIndex,RespMiddle,RespRing,ISI_Cross_Std,ISI_Cross_Probe,ISI_Std_Probe,ISI_Probe_Response,ITI,TrialOnset,StdOnset,StdOnsetByStop,StdOffset,StdDur,ProbeOnset,ProbeOnsetByStop,ProbeOffset,ProbeDur,RespWinStart,RespTime,RT,CorrectKC,CorrectResponse,CorrectFinger,SubjRespKC,SubjResponse,SubjRespFinger
215,Temporal,2314,1,3,1,400,5,5,2,r,r,0,400,0,400,L,S,=,0.390331675327229,0.381503319236959,1.96271578060089,1.7822645692666,1.96760378625202,24525.5246751397,24525.9260877792,24525.9260877792,24526.726613914,0.8,24528.7167168914,24528.7167168914,24529.5167072866,0.8,24531.4414112324,24531.8830207758,0.441609543409868,77,Equals to,Ring,77,=,Ring
215,Temporal,2314,1,3,2,800,7.5,3.33333333333333,1,l,l,-1600,-400,-1600,-800,S,=,L,0.492067286002985,0.358742582148241,1.07496418963791,1.3390925591055,1.88216085507356,24534.0081550638,24534.5170951814,24534.5170951814,24536.1169492998,1.6,24537.2170752275,24537.2170752275,24539.617008969,2.4,24541.0914494676,24541.5549803573,0.46353088971955,77,Longer,Ring,77,L,Ring
215,Temporal,2314,1,3,3,1200,10,5,1,l,l,-1600,0,-1600,-400,L,S,=,0.48814388452423,0.464902881500823,1.23983715234947,1.17698868829084,1.89642840392824,24543.5915343365,24544.0970294554,24544.0970294554,24545.696936827,1.6,24546.9672707564,24546.9672707564,24549.3671416207,2.4,24550.6915156811,24551.1789979809,0.487482299740805,66,Longer,Index,66,L,Index
215,Temporal,2314,1,3,4,400,2.5,1.25,2,m,m,-800,0,-800,-400,S,=,L,0.405633382786243,0.460637117547307,1.49736490424884,1.31064096580729,1.72181775098391,24553.2248912962,24553.6473418205,24553.6473418205,24556.847160779,3.2,24558.3673838712,24558.3673838712,24561.5672323435,3.2,24563.0249211949,24563.370982354,0.346061159008968,78,Equals to,Middle,78,=,Middle
215,Temporal,2314,1,3,5,1200,10,5,1,l,l,-1600,0,-1600,-400,=,L,S,0.368362308560596,0.396920639620709,1.16840393368864,1.90567194084186,1.08070103951845,24565.241679194,24565.6276067132,24565.6276067132,24567.2274451124,1.6,24568.4276680506,24568.4276680506,24570.827198223,2.4,24572.8750408221,24573.2989767053,0.423935883198283,78,Longer,Middle,78,L,Middle
215,Temporal,2314,1,3,6,800,7.5,3.33333333333333,1,m,m,-800,400,-800,0,S,=,L,0.240515754884057,0.464579017833054,1.45460040980469,1.04566837827918,1.47884747390953,24574.5416988271,24574.7976597675,24574.7976597675,24576.3975584774,1.6,24577.8774913849,24577.8774913849,24580.2775040437,2.4,24581.4750541033,24582.2909550473,0.815900943991437,77,Longer,Ring,77,L,Ring
215,Temporal,2314,1,3,7,400,2.5,5,2,l,l,-1600,-1200,-1600,-1200,L,S,=,0.200345293307,0.248501245759392,1.53613698004459,1.08947498232729,1.72712585507067,24583.9084574998,24584.1276644576,24584.1276644576,24585.7275474482,1.6,24587.2977053214,24587.2977053214,24588.0974977817,0.8,24589.3250928883,24589.7310122014,0.405919313121558,78,Shorter,Middle,78,S,Middle
215,Temporal,2314,1,3,8,1600,20,20,2,r,r,0,1600,0,1600,=,L,S,0.271090621820662,0.248873336971295,1.7194648244566,1.78968155785304,1.54985584698714,24591.60851518,24591.8980185526,24591.8980185526,24592.6975437847,0.8,24594.4478586969,24594.4478586969,24595.2476652725,0.8,24597.1751432221,24598.0990155865,0.923872364368435,66,Equals to,Index,66,=,Index
215,Temporal,2314,1,3,9,800,3.75,3.33333333333333,1,m,m,-800,400,-800,0,S,=,L,0.300206539469067,0.379554923699536,1.9800066299365,1.07142244978831,1.95007714385405,24599.8086049405,24600.1279782021,24600.1279782021,24603.3278738324,3.2,24605.3380628747,24605.3380628747,24607.737940155,2.4,24608.9585886117,24609.8670105024,0.908421890770114,66,Shorter,Index,66,S,Index
215,Temporal,2314,1,3,10,800,1.25,3.33333333333333,1,r,r,0,400,0,800,=,L,S,0.245586854740571,0.338718924437702,1.32524124594312,1.33255210440047,1.09492712124093,24611.975278344,24612.2382395083,24612.2382395083,24615.4381152488,3.2,24616.7983786851,24616.7983786851,24619.1979236144,2.4,24620.675299132,24621.0989276867,0.423628554726747,77,Shorter,Ring,77,S,Ring
215,Temporal,2314,1,3,11,1200,3.33333333333333,7.5,1,l,l,-1600,-800,-1600,-400,L,S,=,0.495086529663118,0.403132807190177,1.20356134040437,1.46033300794963,1.20460940117158,24622.3586776663,24622.8682346385,24622.8682346385,24625.2682822648,2.4,24626.4982403552,24626.4982403552,24628.0981194962,1.6,24629.7086911079,24630.0830486214,0.374357513475843,78,Shorter,Middle,78,S,Middle
215,Temporal,2314,1,3,12,1200,5,5,1,r,r,0,1600,0,1200,=,L,S,0.437188033366369,0.233672135865562,1.45840202299865,1.31865739440822,1.41422616634692,24631.4421128544,24631.8985886181,24631.8985886181,24635.0981903935,3.2,24636.5786635318,24636.5786635318,24638.9782209724,2.4,24640.4421122127,24640.8110064654,0.368894252700557,77,Shorter,Ring,66,=,Index
215,Temporal,2314,1,3,13,800,5,5,1,l,l,-1600,-400,-1600,-800,S,=,L,0.292056563444927,0.466137164672378,1.30177106546697,1.09439279693072,1.76613406626271,24642.3754751882,24642.6784647628,24642.6784647628,24645.0784074867,2.4,24646.4084904975,24646.4084904975,24648.0084135884,1.6,24649.2588225406,24650.0110596544,0.752237113858428,66,Shorter,Index,66,S,Index
215,Temporal,2314,1,3,14,800,1.66666666666667,5,1,l,l,-1600,-1200,-1600,-800,L,S,=,0.478236193190884,0.206771919773605,1.29050565013181,1.80303958584798,1.25729908007854,24651.9255318739,24652.418544758,24652.418544758,24654.8185529256,2.4,24656.1287465233,24656.1287465233,24657.7286442708,1.6,24659.6755589817,24660.4832842827,0.807725300961465,78,Shorter,Middle,78,S,Middle
215,Temporal,2314,1,3,15,400,1.66666666666667,1.25,2,r,r,0,400,0,400,=,L,S,0.419546956770859,0.304354236683501,1.42655892368144,1.78754117699755,1.82778620101234,24661.9089329286,24662.3389848601,24662.3389848601,24664.7388412883,2.4,24666.1988523816,24666.1988523816,24669.3987640519,3.2,24671.3256334399,24671.7950241019,0.46939066196137,78,Longer,Middle,78,L,Middle
215,Temporal,2314,1,3,16,800,1.66666666666667,5,1,m,m,-800,-400,-800,0,L,S,=,0.339482257739278,0.428336280722195,1.66857546079415,1.43991681294528,1.87227602238211,24673.775674278,24674.1291950047,24674.1291950047,24676.5290360344,2.4,24678.2291784513,24678.2291784513,24679.8289555772,1.6,24681.4090339813,24681.8510659935,0.442032012204436,78,Shorter,Middle,78,S,Middle
215,Temporal,2314,1,3,17,1600,6.66666666666667,5,2,r,r,0,1600,0,1600,L,S,=,0.437885085520295,0.354079471985442,1.12118276265802,1.1104816371907,1.87337343901032,24683.8757526821,24684.3292927852,24684.3292927852,24686.7291389478,2.4,24687.8792513055,24687.8792513055,24691.0791661839,3.2,24692.3424088264,24693.2270246305,0.884615804126952,66,Longer,Index,66,L,Index
215,Temporal,2314,1,3,18,1200,5,5,1,m,m,-800,0,-800,400,S,=,L,0.288686504804627,0.208814615162961,1.58898608909548,1.57266941847408,1.27600109638042,24695.2425293197,24695.549607197,24695.549607197,24697.1491228691,1.6,24698.7594281701,24698.7594281701,24701.1592470645,2.4,24702.8758585468,24703.4431063786,0.567247831855639,77,Longer,Ring,77,L,Ring
215,Temporal,2314,1,3,19,1600,3.75,5,2,l,l,-1600,-400,-1600,0,S,=,L,0.379515720272164,0.313694286924353,1.18517545045165,1.12219702212335,1.32637019253036,24704.8758790781,24705.2694779394,24705.2694779394,24708.4693905721,3.2,24709.6895494398,24709.6895494398,24712.8894633557,3.2,24714.1591002269,24715.8909192458,1.73181901881981,78,Equals to,Middle,66,S,Index
215,Temporal,2314,1,3,20,1600,15,20,2,l,l,-1600,-400,-1600,0,L,S,=,0.366940468227225,0.255757723217849,1.07881221222902,1.98200554909341,1.52516598143625,24717.359338198,24717.7397944364,24717.7397944364,24718.5395817638,0.8,24719.6497969194,24719.6497969194,24720.4496577105,0.8,24722.5759800666,24722.9790400701,0.40306000347482,77,Equals to,Ring,77,=,Ring
215,Temporal,2314,1,3,21,1200,5,5,1,l,l,-1600,-800,-1600,-400,L,S,=,0.482457502986644,0.293441365103723,1.06051471659865,1.15059354971482,1.9602020002031,24724.6427377128,24725.1398533357,24725.1398533357,24726.7398319253,1.6,24727.8397522188,24727.8397522188,24730.239641048,2.4,24731.5427636366,24732.4191084523,0.876344815660559,66,Longer,Index,66,L,Index
215,Temporal,2314,1,3,22,800,15,5,1,m,m,-800,400,-800,0,=,L,S,0.245914490810687,0.298157198639813,1.43932283628347,1.07899947970217,1.86978525591457,24734.5427420757,24734.8000282498,24734.8000282498,24735.5998210309,0.8,24737.0601304702,24737.0601304702,24738.6599916463,1.6,24739.8927936928,24741.1151599552,1.22236626239101,78,Longer,Middle,66,=,Index
215,Temporal,2314,1,3,23,1200,5,5,1,m,m,-800,0,-800,400,=,L,S,0.478673490262823,0.360314249068913,1.4730249152664,1.20089494684196,1.32163815810512,24743.1428477479,24743.6401125438,24743.6401125438,24745.2399682662,1.6,24746.7502731181,24746.7502731181,24749.150084634,2.4,24750.4928906748,24750.9871377582,0.494247083417577,78,Longer,Middle,78,L,Middle
215,Temporal,2314,1,3,24,800,5,5,1,m,m,-800,400,-800,0,L,S,=,0.462990636863777,0.261487131346513,1.04601495993338,1.2741181855039,1.92450489462904,24752.4595901081,24752.9402653098,24752.9402653098,24755.3399488256,2.4,24756.4203919368,24756.4203919368,24758.0202316192,1.6,24759.4429475337,24760.147105755,0.704158221295074,78,Shorter,Middle,78,S,Middle
215,Temporal,2314,1,3,25,1200,20,7.5,1,r,r,0,1600,0,1200,=,L,S,0.213314318591767,0.22502661438965,1.81955489708783,1.81271970434849,1.60267075210538,24761.2762584588,24761.5004157147,24761.5004157147,24762.3003573479,0.8,24764.1404660678,24764.1404660678,24765.7403330183,1.6,24767.7096102061,24768.035115646,0.325505439839617,78,Longer,Middle,78,L,Middle
215,Temporal,2314,1,3,26,800,1.25,3.33333333333333,1,r,r,0,400,0,800,=,L,S,0.419169818463624,0.440475692710208,1.00143521412744,1.45964199910867,1.62526027115941,24769.7930303164,24770.230490853,24770.230490853,24773.4304881775,3.2,24774.4602474347,24774.4602474347,24776.8602812665,2.4,24778.4596754894,24779.5312416391,1.071566149727,77,Shorter,Ring,66,=,Index
215,Temporal,2314,1,3,27,400,5,5,2,r,r,0,400,0,400,L,S,=,0.364985912392323,0.295432751606561,1.65020053898744,1.43283900227424,1.34446449448261,24781.2930928729,24781.6703596962,24781.6703596962,24782.4703658107,0.8,24784.1603910899,24784.1603910899,24784.960428643,0.8,24786.5430619155,24786.8991106081,0.35604869263625,77,Equals to,Ring,77,=,Ring
215,Temporal,2314,1,3,28,800,2.5,3.33333333333333,1,l,l,-1600,-1200,-1600,-800,S,=,L,0.420488391785654,0.208786361692814,1.11182675940486,1.5993040537738,1.11401190815859,24788.3931523496,24788.8308971168,24788.8308971168,24790.4307813906,1.6,24791.5705882998,24791.5705882998,24793.9705419311,2.4,24795.7264516779,24796.2268969513,0.500445273395599,77,Longer,Ring,77,L,Ring
215,Temporal,2314,1,3,29,1200,6.66666666666667,7.5,1,m,m,-800,800,-800,400,S,=,L,0.390248515894496,0.296805441444841,1.45967033606534,1.6547599827611,1.38554322266044,24797.5264944087,24797.9307275408,24797.9307275408,24800.3307812623,2.4,24801.8208101345,24801.8208101345,24803.4206860675,1.6,24805.2265755268,24805.643121713,0.41654618613029,66,Shorter,Index,66,S,Index
215,Temporal,2314,1,3,30,1200,6.66666666666667,7.5,1,m,m,-800,800,-800,400,L,S,=,0.404724977543934,0.267435712652453,1.59407721074674,1.49550848467964,1.66440629373465,24807.1765938895,24807.6010792619,24807.6010792619,24810.0009482014,2.4,24811.6208827,24811.6208827,24813.2208131693,1.6,24814.8765874093,24815.2431160669,0.366528657577874,78,Shorter,Middle,78,S,Middle
215,Temporal,2314,1,3,31,800,1.66666666666667,5,1,l,l,-1600,-1200,-1600,-800,L,S,=,0.2629225537451,0.401203358660617,1.18712930211514,1.63457470305237,1.52700155268052,24817.0599861542,24817.3410909262,24817.3410909262,24819.7409656402,2.4,24820.9609942621,24820.9609942621,24822.5609895335,1.6,24824.3433744124,24824.6591566881,0.315782275734819,78,Shorter,Middle,78,S,Middle
215,Temporal,2314,1,3,32,800,3.75,3.33333333333333,1,r,r,0,1200,0,800,L,S,=,0.473786141230214,0.45764493596359,1.83472232710204,1.21960294474499,1.66068612078536,24826.3600282434,24826.8514153021,24826.8514153021,24830.0512230326,3.2,24831.9111188296,24831.9111188296,24834.3112059146,2.4,24835.6767753199,24835.9869253872,0.310150067285576,78,Shorter,Middle,78,S,Middle
215,Temporal,2314,1,3,33,400,3.33333333333333,1.25,2,l,l,-1600,-800,-1600,-1200,L,S,=,0.427181420796394,0.247506558893188,1.30110478800422,1.94102189181778,1.21935195495543,24837.810108861,24838.2515297002,24838.2515297002,24840.651483973,2.4,24841.9814049787,24841.9814049787,24845.1812608295,3.2,24847.2601796824,24847.6111743091,0.350994626754982,66,Longer,Index,77,=,Ring
215,Temporal,2314,1,3,34,1200,3.33333333333333,7.5,1,l,l,-1600,-800,-1600,-400,S,=,L,0.431361605861629,0.279353124628186,1.32658258401826,1.20713126988375,1.15915078662715,24848.9768698435,24849.4215619023,24849.4215619023,24851.8214038944,2.4,24853.1818524336,24853.1818524336,24854.7814592135,1.6,24856.1268422866,24856.5631284113,0.436286124728213,66,Shorter,Index,66,S,Index
215,Temporal,2314,1,3,35,800,5,5,1,m,m,-800,400,-800,0,=,L,S,0.254874299135496,0.250853379924035,1.49855820193638,1.97901871075447,1.15733115478005,24857.8602627498,24858.1317168305,24858.1317168305,24860.5315511233,2.4,24862.061870822,24862.061870822,24863.661722374,1.6,24865.7935987779,24866.2030911854,0.409492407576181,77,Shorter,Ring,77,S,Ring
215,Temporal,2314,1,3,36,1200,5,5,1,m,m,-800,800,-800,400,=,L,S,0.450579872239302,0.248124420183903,1.52706381105607,1.75587025856011,1.07240328854563,24867.5269570055,24867.9918612043,24867.9918612043,24871.1918335062,3.2,24872.7518787329,24872.7518787329,24875.1518929958,2.4,24877.0436813844,24877.507136244,0.463454859607737,77,Shorter,Ring,66,=,Index
215,Temporal,2314,1,3,37,1200,10,7.5,1,m,m,-800,0,-800,400,S,=,L,0.33061408909084,0.242626600063856,1.09933303513996,1.4968502736824,1.4460103290871,24878.727061202,24879.0720941452,24879.0720941452,24879.8719007207,0.8,24881.0122055148,24881.0122055148,24882.6120875431,1.6,24884.2604172674,24884.6671138649,0.406696597434348,77,Longer,Ring,77,L,Ring
215,Temporal,2314,1,3,38,1200,3.33333333333333,7.5,1,m,m,-800,0,-800,400,S,=,L,0.498496833302521,0.297857395766897,1.16760168673792,1.16444245205334,1.21973111850268,24886.2770716922,24886.792290181,24886.792290181,24889.1921963335,2.4,24890.3921680836,24890.3921680836,24891.9919923675,1.6,24893.3104691218,24893.7233103831,0.412841261317226,66,Shorter,Index,66,S,Index
215,Temporal,2314,1,3,39,400,1.66666666666667,1.25,2,m,m,-800,-400,-800,-400,L,S,=,0.389135723579216,0.479714480708154,1.55633302597953,1.78663302218869,1.7086735786829,24895.0938384812,24895.5022747632,24895.5022747632,24897.9022293569,2.4,24899.4823744428,24899.4823744428,24902.6823207598,3.2,24904.6105515557,24905.6672203712,1.05666881545767,66,Longer,Index,66,L,Index
215,Temporal,2314,1,3,40,800,5,5,1,l,l,-1600,-1200,-1600,-800,=,L,S,0.413330053993008,0.438465377571243,1.5538582514553,1.60701381209931,1.61391949232704,24907.5272354617,24907.9526415363,24907.9526415363,24908.7524731344,0.8,24910.3326233532,24910.3326233532,24911.9325403489,1.6,24913.6772470427,24914.5311521353,0.853905092608329,78,Longer,Middle,78,L,Middle
215,Temporal,2314,1,3,41,1200,5,5,1,r,r,0,1600,0,1200,L,S,=,0.340687838858169,0.411165328359376,1.77771872544085,1.70963709431052,1.26725347809833,24916.2939272793,24916.6525875774,24916.6525875774,24919.852474546,3.2,24921.6528073269,24921.6528073269,24924.0527673742,2.4,24925.8940275172,24926.2511890532,0.357161536001513,78,Shorter,Middle,78,S,Middle
215,Temporal,2314,1,3,42,400,1.25,1.25,2,l,l,-1600,-1200,-1600,-1200,=,L,S,0.24923541643353,0.312495812278629,1.19924336796036,1.15861673367482,1.42689378838786,24927.6773814588,24927.9427358072,24927.9427358072,24931.142622455,3.2,24932.3729802649,24932.3729802649,24935.5729121458,3.2,24936.8773676001,24937.2673023041,0.389934703929612,66,Equals to,Index,66,=,Index
215,Temporal,2314,1,3,43,1600,5,5,2,l,l,-1600,-400,-1600,0,S,=,L,0.402421244324166,0.210322998667476,1.24895726630371,1.33510179954005,1.92187305545325,24938.8607506899,24939.2828993393,24939.2828993393,24941.6827676372,2.4,24942.9629476265,24942.9629476265,24946.1629872969,3.2,24947.6441698408,24948.0192189366,0.375049095735449,77,Longer,Ring,77,L,Ring
215,Temporal,2314,1,3,44,1600,5,5,2,l,l,-1600,0,-1600,0,S,=,L,0.451363349986357,0.368313737273011,1.21944208744933,1.4976302275682,1.22256672527864,24950.0941871932,24950.563127404,24950.563127404,24953.7631074052,3.2,24955.0131618261,24955.0131618261,24958.2130240929,3.2,24959.8608536674,24960.5554333299,0.694579662555043,78,Equals to,Middle,66,S,Index
215,Temporal,2314,1,3,45,1200,20,7.5,1,l,l,-1600,0,-1600,-400,L,S,=,0.38522822161918,0.412801284513235,1.11313926601605,1.21658871346336,1.34827121077373,24961.9276119551,24962.3234557899,24962.3234557899,24963.123342566,0.8,24964.2733464926,24964.2733464926,24965.8733619745,1.6,24967.2442321376,24968.5152031351,1.27097099756065,66,Longer,Index,66,L,Index
215,Temporal,2314,1,3,46,1600,6.66666666666667,5,2,m,m,-800,800,-800,800,L,S,=,0.432014877380112,0.343921279188342,1.71654064346752,1.82177501456404,1.88605968171306,24970.0109569978,24970.4631526191,24970.4631526191,24972.8632605562,2.4,24974.6134477891,24974.6134477891,24977.8133540058,3.2,24979.7776488153,24980.7471562493,0.969507433947001,66,Longer,Index,77,=,Ring
215,Temporal,2314,1,3,47,1200,10,5,1,m,m,-800,800,-800,400,S,=,L,0.497067446880412,0.470850547834398,1.04049581979787,1.79042122921944,1.58887684071119,24982.7777335071,24983.2936677054,24983.2936677054,24984.8936652224,1.6,24985.9637050404,24985.9637050404,24988.3636570676,2.4,24990.2944479126,24990.8432551025,0.548807189872605,77,Longer,Ring,77,L,Ring
215,Temporal,2314,1,3,48,800,2.5,3.33333333333333,1,r,r,0,400,0,800,L,S,=,0.238422957528771,0.242899884254759,1.15766867671104,1.44500587355754,1.30843654217913,24992.5777964485,24992.8337423112,24992.8337423112,24994.4337687004,1.6,24995.6138856841,24995.6138856841,24998.0137786837,2.4,24999.6111101487,25000.0912370965,0.480126947830286,66,Longer,Index,66,L,Index
215,Temporal,2314,1,3,49,800,2.5,3.33333333333333,1,r,r,0,400,0,800,S,=,L,0.496787909354685,0.487855584623293,1.33598934779515,1.59073255838988,1.86173569318719,25002.7945387282,25003.3039782868,25003.3039782868,25004.9038388213,1.6,25006.2639187588,25006.2639187588,25008.663784811,2.4,25010.3945943553,25010.915165473,0.520571117667714,77,Longer,Ring,77,L,Ring
215,Temporal,2314,1,3,50,1200,3.33333333333333,7.5,1,r,r,0,800,0,1200,S,=,L,0.384912048600884,0.330920687945995,1.29935247370304,1.64592245854834,1.75586209226343,25012.9279048475,25013.3240486323,25013.3240486323,25015.7239371407,2.4,25017.0642027328,25017.0642027328,25018.6640334327,1.6,25020.4612608936,25020.8750485213,0.41378762768727,66,Shorter,Index,66,S,Index
215,Temporal,2314,1,3,51,1600,7.5,20,2,r,r,0,1200,0,1600,=,L,S,0.286705266262965,0.499487145445069,1.93372786211143,1.61381226155806,1.77543638725586,25022.7779939984,25023.0842576798,25023.0842576798,25024.6840915877,1.6,25026.644365418,25026.644365418,25027.4442486653,0.8,25029.2113681256,25029.6112253167,0.399857191128831,77,Shorter,Ring,77,S,Ring
215,Temporal,2314,1,3,52,1600,7.5,20,2,m,m,-800,400,-800,800,L,S,=,0.383965547082227,0.253954008215033,1.84116824588644,1.67468827229952,1.63160449789308,25031.528055432,25031.9244221744,25031.9244221744,25033.5242336261,1.6,25035.4042796484,25035.4042796484,25036.2041385147,0.8,25038.0113634541,25038.483267601,0.47190414688157,78,Shorter,Middle,77,=,Ring
215,Temporal,2314,1,3,53,800,15,5,1,m,m,-800,400,-800,0,S,=,L,0.302413022865994,0.259692991458842,1.12566344285232,1.35052449015491,1.44935044754444,25040.2780684245,25040.5946372337,25040.5946372337,25041.3945066865,0.8,25042.5544901267,25042.5544901267,25044.154441769,1.6,25045.6614096817,25046.1712156413,0.509805959605728,77,Longer,Ring,78,=,Middle
215,Temporal,2314,1,3,54,1600,15,20,2,r,r,0,1200,0,1600,L,S,=,0.2731146328779,0.322194345296142,1.41594160607364,1.25131639220528,1.39622742055177,25047.7615126296,25048.0545164324,25048.0545164324,25048.8544227775,0.8,25050.2946057309,25050.2946057309,25051.0944443867,0.8,25052.4947924185,25052.8510865248,0.35629410628826,77,Equals to,Ring,77,=,Ring
215,Temporal,2314,1,3,55,800,7.5,3.33333333333333,1,l,l,-1600,-400,-1600,-800,=,L,S,0.288674867447113,0.314768344721461,1.60353995733564,1.01810775959919,1.4429854770892,25054.4114945339,25054.7147891913,25054.7147891913,25056.3147071493,1.6,25057.9448364198,25057.9448364198,25060.3447653493,2.4,25061.5282520074,25061.8672199862,0.338967978870642,78,Longer,Middle,78,L,Middle
215,Temporal,2314,1,3,56,1200,10,5,1,l,l,-1600,0,-1600,-400,S,=,L,0.290721775915981,0.361410304157776,1.61343284766313,1.6941806078106,1.65594465230279,25063.4616092369,25063.7647294258,25063.7647294258,25065.3647359253,1.6,25067.0049476868,25067.0049476868,25069.4048294584,2.4,25071.2616000457,25071.6192347842,0.35763473850966,77,Longer,Ring,78,=,Middle
215,Temporal,2314,1,3,57,800,7.5,3.33333333333333,1,r,r,0,1200,0,800,S,=,L,0.418944215944423,0.382972489333339,1.96481858228089,1.45922337501942,1.02174942163846,25073.4283344016,25073.8650801909,25073.8650801909,25075.4648576376,1.6,25077.4548659785,25077.4548659785,25079.8548632388,2.4,25081.4617088006,25081.8351968731,0.373488072429609,77,Longer,Ring,77,L,Ring
215,Temporal,2314,1,3,58,800,1.25,3.33333333333333,1,l,l,-1600,-1200,-1600,-800,L,S,=,0.38634770633347,0.423822462094476,1.11927622210569,1.43818428032195,1.44662323380781,25083.0117323766,25083.4150768867,25083.4150768867,25086.6149404367,3.2,25087.7653351003,25087.7653351003,25090.1649207715,2.4,25091.745043767,25092.1153601357,0.37031636867323,78,Shorter,Middle,78,S,Middle
215,Temporal,2314,1,3,59,400,10,5,2,r,r,0,800,0,400,S,=,L,0.217815052388671,0.45167578681754,1.24868080457633,1.998707225051,1.3778789507375,25093.6951195726,25093.9253954881,25093.9253954881,25094.7252774522,0.8,25096.0051061631,25096.0051061631,25096.8050105833,0.8,25098.9618258456,25099.5072376175,0.545411771952786,78,Equals to,Middle,78,=,Middle
215,Temporal,2314,1,3,60,400,1.25,1.25,2,r,r,0,400,0,400,=,L,S,0.331773614625126,0.371394068838052,1.5253267324305,1.85791115238464,1.54623065602271,25101.0451573952,25101.3953956742,25101.3953956742,25104.5953111941,3.2,25106.1553731025,25106.1553731025,25109.3553065874,3.2,25111.3618632318,25111.7072513478,0.345388116074901,66,Equals to,Index,66,=,Index
215,Temporal,2314,1,3,61,800,2.5,3.33333333333333,1,m,m,-800,-400,-800,0,=,L,S,0.346935386512859,0.341360225511055,1.09072663681035,1.67429470209082,1.04171154912467,25113.4118820629,25113.7757037469,25113.7757037469,25115.3754994793,1.6,25116.5055081282,25116.5055081282,25118.905462401,2.4,25120.7286343872,25121.0992295615,0.370595174292248,78,Longer,Middle,66,=,Index
215,Temporal,2314,1,3,62,400,3.33333333333333,1.25,2,r,r,0,800,0,400,S,=,L,0.365244902066869,0.236494941245637,1.39680242503339,1.4128821417711,1.91189305155503,25122.2786225414,25122.65570802,25122.65570802,25125.0556221926,2.4,25126.4857768705,25126.4857768705,25129.6857164507,3.2,25131.245306504,25131.5553095003,0.310002996291587,77,Longer,Ring,78,=,Middle
215,Temporal,2314,1,3,63,1200,2.5,5,1,r,r,0,800,0,1200,L,S,=,0.286520506016193,0.379985759189083,1.74664313057521,1.22439483322971,1.69746720412174,25133.6287231497,25133.9260181651,25133.9260181651,25137.1259064169,3.2,25138.905976371,25138.905976371,25141.3056781726,2.4,25142.6787118253,25143.0592678781,0.380556052798056,78,Shorter,Middle,78,S,Middle
215,Temporal,2314,1,3,64,1200,20,7.5,1,l,l,-1600,0,-1600,-400,S,=,L,0.381494828648709,0.393109266125246,1.20731121724257,1.6751382277208,1.48780166508051,25144.9120957171,25145.3060365535,25145.3060365535,25146.1059387281,0.8,25147.3561198658,25147.3561198658,25148.9560407111,1.6,25150.7787700189,25151.8112813929,1.03251137404004,77,Longer,Ring,77,L,Ring
215,Temporal,2314,1,3,65,400,10,5,2,m,m,-800,0,-800,-400,=,L,S,0.318258759622639,0.341182640865601,1.83125745217617,1.88879569876063,1.16977279864798,25153.4454889763,25153.7760896719,25153.7760896719,25154.5759604079,0.8,25156.4462671974,25156.4462671974,25157.2461154772,0.8,25159.2788748305,25159.6913036309,0.412428800416819,66,Equals to,Index,66,=,Index
215,Temporal,2314,1,3,66,1200,10,7.5,1,r,r,0,800,0,1200,=,L,S,0.477212600968155,0.436255481241229,1.40908225125356,1.95594415707367,1.10269930195248,25161.01223764,25161.5063563291,25161.5063563291,25162.3061959472,0.8,25163.7563266549,25163.7563266549,25165.3563305879,1.6,25167.4622149593,25170.3232704112,2.86105545193641,78,Longer,Middle,66,=,Index
215,Temporal,2314,1,3,67,1200,2.5,5,1,m,m,-800,0,-800,400,=,L,S,0.341170681285509,0.276560911671359,1.68669100475313,1.07794311582937,1.29281757464994,25171.5789664139,25171.9366136188,25171.9366136188,25175.1361740108,3.2,25176.8464197709,25176.8464197709,25179.2464324298,2.4,25180.479029503,25182.3232450678,1.84421556485904,77,Shorter,Ring,66,=,Index
215,Temporal,2314,1,3,68,1200,6.66666666666667,7.5,1,l,l,-1600,0,-1600,-400,L,S,=,0.382215857151388,0.218430025243103,1.18784498621193,1.59699073391614,1.81843318685342,25183.7623776701,25184.1566608024,25184.1566608024,25186.5565557269,2.4,25187.7868403939,25187.7868403939,25189.3863903918,1.6,25191.1290423478,25191.4592475393,0.330205191476125,78,Shorter,Middle,78,S,Middle
215,Temporal,2314,1,3,69,800,15,5,1,r,r,0,1200,0,800,L,S,=,0.243926817818492,0.265921108775959,1.14903717637058,1.04555759447154,1.904533477383,25193.4291078556,25193.6868344911,25193.6868344911,25194.4866795629,0.8,25195.6566553488,25195.6566553488,25197.2564902191,1.6,25198.4624766095,25198.9793422657,0.516865656201844,66,Longer,Index,66,L,Index
215,Temporal,2314,1,3,70,1200,5,5,1,m,m,-800,0,-800,400,S,=,L,0.446095123807134,0.268822215309042,1.62255905631165,1.6594070378327,1.66657496521265,25201.0291561043,25201.486796059,25201.486796059,25203.0867149795,1.6,25204.7369267859,25204.7369267859,25207.1367745524,2.4,25208.9291408982,25209.6593976105,0.730256712304254,77,Longer,Ring,78,=,Middle
215,Temporal,2314,1,3,71,800,3.75,3.33333333333333,1,r,r,0,1200,0,800,=,L,S,0.417491549849221,0.444076399489889,1.97697810111166,1.28337933983134,1.10685415863479,25211.4792309474,25211.9070369429,25211.9070369429,25215.107088483,3.2,25217.1170173548,25217.1170173548,25219.5169177329,2.4,25220.9459491552,25221.4112420626,0.465292907323601,77,Shorter,Ring,77,S,Ring
215,Temporal,2314,1,3,72,800,15,5,1,r,r,0,1200,0,800,S,=,L,0.335004354906636,0.351602430121133,1.51944373959045,1.61487826074178,1.90518969309595,25222.6626248803,25223.0171917428,25223.0171917428,25223.8171028999,0.8,25225.3671500064,25225.3671500064,25226.9670747013,1.6,25228.7292776241,25229.4993016137,0.770023989585752,77,Longer,Ring,77,L,Ring
215,Temporal,2314,1,3,73,800,1.25,3.33333333333333,1,r,r,0,400,0,800,=,L,S,0.316822454959705,0.29469988575848,1.69445346512311,1.72126856797994,1.4141388817345,25232.3124407719,25232.6473023618,25232.6473023618,25235.8473429946,3.2,25237.5672959073,25237.5672959073,25239.9672739195,2.4,25241.8293585946,25242.2673459332,0.437987338580569,77,Shorter,Ring,77,S,Ring
215,Temporal,2314,1,3,74,1200,10,7.5,1,m,m,-800,0,-800,400,S,=,L,0.314963870196047,0.245630763720609,1.90571354164534,1.62362340066961,1.26400097653851,25243.8294115269,25244.1574875096,25244.1574875096,25244.9572825362,0.8,25246.897599585,25246.897599585,25248.4974992573,1.6,25250.2627478758,25250.8752871981,0.612539322326484,77,Longer,Ring,66,S,Index
215,Temporal,2314,1,3,75,1200,6.66666666666667,7.5,1,l,l,-1600,0,-1600,-400,=,L,S,0.366237740048065,0.273127469537438,1.83996059921736,1.26912620982691,1.19330392475121,25252.2961331149,25252.6776085418,25252.6776085418,25255.0774678572,2.4,25256.9476360602,25256.9476360602,25258.54757872,1.6,25259.9628755102,25260.9952126694,1.03233715914394,77,Shorter,Ring,77,S,Ring
215,Temporal,2314,1,3,76,400,2.5,5,2,l,l,-1600,-1200,-1600,-1200,L,S,=,0.329532896915254,0.387938949559882,1.25637309490151,1.87856328262448,1.82745464586329,25262.3295488303,25262.6779383264,25262.6779383264,25264.277748495,1.6,25265.5677014012,25265.5677014012,25266.3676603578,0.8,25268.3962339751,25268.8113923904,0.415158415315091,78,Shorter,Middle,78,S,Middle
215,Temporal,2314,1,3,77,1600,10,20,2,r,r,0,1600,0,1600,=,L,S,0.278950504354866,0.396037742766141,1.69585786460852,1.85828615641499,1.49873396604934,25270.779627523,25271.0780706894,25271.0780706894,25272.6776303114,1.6,25274.4078864271,25274.4078864271,25275.2076737545,0.8,25277.2129810231,25277.7312098155,0.518228792443551,77,Shorter,Ring,77,S,Ring
215,Temporal,2314,1,3,78,1200,5,5,1,l,l,-1600,0,-1600,-400,=,L,S,0.307588995878197,0.332124439615588,1.64144113320182,1.68755576006803,1.69696204459048,25279.3796901599,25279.6979932734,25279.6979932734,25282.8979581969,3.2,25284.5679577221,25284.5679577221,25286.9679665313,2.4,25288.7963926439,25289.1393410595,0.342948415654973,77,Shorter,Ring,66,=,Index
215,Temporal,2314,1,3,79,1600,20,20,2,r,r,0,1600,0,1600,=,L,S,0.452181096947644,0.473359455721905,1.92996295073577,1.65087617340624,1.8161501390165,25290.9797560048,25291.4482953087,25291.4482953087,25292.2480986762,0.8,25294.2081158648,25294.2081158648,25295.0080459491,0.8,25296.8131072745,25297.1472100157,0.334102741187962,66,Equals to,Index,66,=,Index
215,Temporal,2314,1,3,80,1200,20,7.5,1,l,l,-1600,0,-1600,-400,L,S,=,0.470628379478958,0.43256490878469,1.17490978060474,1.17661142469246,1.8708024913378,25299.1131065005,25299.5981593206,25299.5981593206,25300.3981458662,0.8,25301.5982029497,25301.5982029497,25303.198246983,1.6,25304.5297656284,25307.10725539,2.57748976159928,66,Longer,Index,77,=,Ring
215,Temporal,2314,1,3,81,400,5,5,2,m,m,-800,0,-800,-400,=,L,S,0.417608220825291,0.34136517833277,1.70763555654199,1.73708277399914,1.21412364118415,25309.1298732254,25309.5585290259,25309.5585290259,25311.1584004676,1.6,25312.8986948036,25312.8986948036,25313.6985183816,0.8,25315.5798559983,25316.0194829567,0.439626958417648,77,Shorter,Ring,77,S,Ring
215,Temporal,2314,1,3,82,400,5,5,2,m,m,-800,0,-800,-400,S,=,L,0.288222208041691,0.415214533771924,1.7303523294901,1.74662643110553,1.73929276141598,25317.396545474,25317.6987551785,25317.6987551785,25319.2986311115,1.6,25321.0585014369,25321.0585014369,25321.8584844536,0.8,25323.7632233046,25324.1953515126,0.432128207939968,66,Shorter,Index,66,S,Index
215,Temporal,2314,1,3,83,800,1.66666666666667,5,1,r,r,0,400,0,800,S,=,L,0.388085029294243,0.232567639611318,1.98231169192271,1.99547949022194,1.06230806315179,25326.0799827152,25326.478777609,25326.478777609,25328.878692744,2.4,25330.8987108437,25330.8987108437,25332.4985803606,1.6,25334.6466958228,25335.0594815324,0.412785709620948,66,Shorter,Index,66,S,Index
215,Temporal,2314,1,3,84,1200,10,7.5,1,m,m,-800,0,-800,400,S,=,L,0.211866659173763,0.275759594047796,1.65642516855237,1.1039094340192,1.44823374440415,25336.2633788937,25336.4887603306,25336.4887603306,25337.28872442,0.8,25338.9686527721,25338.9686527721,25340.5686737076,1.6,25341.8133771934,25342.1473928729,0.334015679527511,77,Longer,Ring,77,L,Ring
215,Temporal,2314,1,3,85,1600,5,5,2,r,r,0,1600,0,1600,L,S,=,0.497848762397391,0.31416112965702,1.81612399278616,1.21507081436697,1.20762180977844,25343.7467667954,25344.2589363804,25344.2589363804,25347.4588640909,3.2,25349.3093299084,25349.3093299084,25352.5088206863,3.2,25353.8801542364,25354.3953873782,0.515233141879435,77,Equals to,Ring,77,=,Ring
215,Temporal,2314,1,3,86,800,3.75,3.33333333333333,1,m,m,-800,400,-800,0,=,L,S,0.361121742580312,0.390109135275136,1.3284569383401,1.90161729432869,1.29201577769458,25355.7468428255,25356.1189925336,25356.1189925336,25359.3190633219,3.2,25360.6691717658,25360.6691717658,25363.0690496878,2.4,25365.1134921047,25365.6594518261,0.545959721363033,77,Shorter,Ring,78,L,Middle
215,Temporal,2314,1,3,87,1200,2.5,5,1,m,m,-800,0,-800,400,L,S,=,0.455079574988004,0.329934828371316,1.37061723415863,1.8383216585903,1.34535260150814,25367.1135559444,25367.5791986298,25367.5791986298,25370.779099072,3.2,25372.1793463271,25372.1793463271,25374.5792900135,2.4,25376.5636304382,25377.4913858204,0.927755382250325,78,Shorter,Middle,78,S,Middle
215,Temporal,2314,1,3,88,1600,10,20,2,m,m,-800,800,-800,800,S,=,L,0.318279241851384,0.313776404951541,1.9634332574234,1.61017711938426,1.76659553884032,25378.9969607203,25379.3295112515,25379.3295112515,25380.9293570291,1.6,25382.929446257,25382.929446257,25383.729320201,0.8,25385.4969764396,25385.9074873941,0.410510954432539,66,Shorter,Index,66,S,Index
215,Temporal,2314,1,3,89,1200,2.5,5,1,r,r,0,800,0,1200,=,L,S,0.223496238303298,0.478778140701884,1.05770713268882,1.40603140502729,1.8547803754127,25387.8303877279,25388.0695017429,25388.0695017429,25391.2695285812,3.2,25392.3498363139,25392.3498363139,25394.7497235391,2.4,25396.297089752,25396.9634484436,0.666358691538335,77,Shorter,Ring,77,S,Ring
215,Temporal,2314,1,3,90,800,5,5,1,l,l,-1600,-1200,-1600,-800,=,L,S,0.333975266644318,0.464853873895576,1.98614142471726,1.65755018390676,1.25810167237356,25398.9637884939,25399.3096574475,25399.3096574475,25400.1095419779,0.8,25402.1297185539,25402.1297185539,25403.7296993891,1.6,25405.5304248768,25405.9555227054,0.425097828618163,78,Longer,Middle,66,=,Index
215,Temporal,2314,1,3,91,800,5,5,1,r,r,0,400,0,800,L,S,=,0.267792598489971,0.368848350902464,1.31516366984066,1.13440997109622,1.8607123126835,25407.3634621097,25407.6498142427,25407.6498142427,25408.4498392845,0.8,25409.7901141799,25409.7901141799,25411.3899330101,1.6,25412.6638516277,25413.5953263617,0.931474733941286,66,Longer,Index,66,L,Index
215,Temporal,2314,1,3,92,800,5,5,1,m,m,-800,400,-800,0,S,=,L,0.308317527316932,0.278411620158783,1.03005092933834,1.49991190120413,1.15797841031914,25415.6138568568,25415.9402059614,25415.9402059614,25418.3397839333,2.4,25419.3901534461,25419.3901534461,25420.9901214493,1.6,25422.6305805942,25423.7952772148,1.16469662060626,66,Shorter,Index,66,S,Index
215,Temporal,2314,1,3,93,800,5,5,1,m,m,-800,-400,-800,0,L,S,=,0.225842352761345,0.386090452704469,1.7511989800831,1.47104630824201,1.74230839173377,25425.0972967285,25425.3400848907,25425.3400848907,25426.140073361,0.8,25427.9102590798,25427.9102590798,25429.5100942709,1.6,25431.1306659947,25431.4594557399,0.328789745155518,66,Longer,Index,77,=,Ring
215,Temporal,2314,1,3,94,400,2.5,1.25,2,l,l,-1600,-800,-1600,-1200,=,L,S,0.433835128678185,0.243109736392282,1.6551936057432,1.25161074189408,1.71038523527039,25433.3639696188,25433.8103988212,25433.8103988212,25437.0103255693,3.2,25438.7006126231,25438.7006126231,25441.9001431804,3.2,25443.2973406143,25443.7634392045,0.466098590201,66,Equals to,Index,66,=,Index
215,Temporal,2314,1,3,95,1600,5,5,2,l,l,-1600,-400,-1600,0,S,=,L,0.492606704972452,0.482279853119527,1.46147551072711,1.89349850189214,1.27562077963152,25445.6307281632,25446.1404920528,25446.1404920528,25448.5404941251,2.4,25450.0406462303,25450.0406462303,25453.2404841161,3.2,25455.2974842094,25455.755439361,0.457955151661736,77,Longer,Ring,77,L,Ring
215,Temporal,2314,1,3,96,1600,3.75,5,2,l,l,-1600,-400,-1600,0,=,L,S,0.283920693701529,0.291376160552351,1.99620942685869,1.63784699658951,1.15107796307126,25457.1974697692,25457.5007002662,25457.5007002662,25460.7006064829,3.2,25462.7208972644,25462.7208972644,25465.9207916114,3.2,25467.6975586314,25468.0754388734,0.377880241987441,66,Equals to,Index,66,=,Index
