Subject,Task,SequenceOrder,ListNo,RunNo,TrialNo,Aud_Probe_Dist,Aud_Standard_Vel,Aud_Probe_Vel,Main_Control,Aud_Std_StartCode,Aud_Probe_StartCode,Aud_Std_StartPt,Aud_Std_EndPt,Aud_Probe_StartPt,Aud_Probe_EndPt,RespIndex,RespMiddle,RespRing,ISI_Cross_Std,ISI_Cross_Probe,ISI_Std_Probe,ISI_Probe_Response,ITI,TrialOnset,StdOnset,StdOnsetByStop,StdOffset,StdDur,ProbeOnset,ProbeOnsetByStop,ProbeOffset,ProbeDur,RespWinStart,RespTime,RT,CorrectKC,CorrectResponse,CorrectFinger,SubjRespKC,SubjResponse,SubjRespFinger
301,Temporal,1243,1,1,1,400,2.5,1.25,2,l,l,-1600,-800,-1600,-1200,S,=,L,0.400686470265161,0.220948063838832,1.19499416695077,1.94412474553992,1.50487512478921,167808.934851881,167809.346596851,167809.346596851,167812.557464042,3.2,167813.777613385,167813.777613385,167816.977623359,3.2,167819.068294544,167819.571409369,0.503114825580269,78,Equals to,Middle,77,L,Ring
301,Temporal,1243,1,1,2,400,1.66666666666667,1.25,2,r,r,0,400,0,400,=,L,S,0.339757167722587,0.450297927103455,1.46487896311834,1.20818500092474,1.30642835038157,167821.218309509,167821.577966844,167821.577966844,167823.977685274,2.4,167825.477924467,167825.477924467,167828.677809007,3.2,167830.018329976,167830.427364526,0.409034550015349,78,Longer,Middle,78,L,Middle
301,Temporal,1243,1,1,3,1200,10,5,1,l,l,-1600,0,-1600,-400,S,=,L,0.376331290578892,0.312872142830047,1.05931736957679,1.41470860021576,1.64519879169535,167831.885035524,167832.278216653,167832.278216653,167833.877918464,1.6,167834.978171965,167834.978171965,167837.377979577,2.4,167838.951715151,167839.459359057,0.507643906108569,77,Longer,Ring,77,L,Ring
301,Temporal,1243,1,1,4,400,1.25,1.25,2,l,l,-1600,-1200,-1600,-1200,=,L,S,0.472168270764437,0.384136688152425,1.09620896965873,1.79528263458187,1.99914013867694,167841.268402397,167841.758152262,167841.758152262,167844.957997985,3.2,167846.078313792,167846.078313792,167849.27810562,3.2,167851.235097391,167851.675382532,0.440285141521599,66,Equals to,Index,78,L,Middle
301,Temporal,1243,1,1,5,800,3.75,3.33333333333333,1,m,m,-800,400,-800,0,S,=,L,0.245362076812685,0.374825190667665,1.56035602902154,1.22916228887384,1.11374183076298,167853.81850924,167854.078462965,167854.078462965,167857.278308688,3.2,167858.878335542,167858.878335542,167861.278147966,2.4,167862.668490425,167863.09144136,0.422950934327673,66,Shorter,Index,66,S,Index
301,Temporal,1243,1,1,6,800,3.75,3.33333333333333,1,m,m,-800,400,-800,0,L,S,=,0.284505497117466,0.373621423279871,1.05732868996044,1.84037797646844,1.22335303467882,167864.351870227,167864.648625698,167864.648625698,167867.848245256,3.2,167868.938314902,167868.938314902,167871.338339376,2.4,167873.318630889,167874.283369087,0.964738197537372,78,Shorter,Middle,78,S,Middle
301,Temporal,1243,1,1,7,1200,10,7.5,1,m,m,-800,0,-800,400,S,=,L,0.215158077805249,0.364663747521708,1.63444254538135,1.96335366958279,1.90983202370996,167875.651926142,167875.87855882,167875.87855882,167876.678576686,0.8,167878.348853692,167878.348853692,167879.948384516,1.6,167882.068647746,167882.419444891,0.35079714449239,77,Longer,Ring,77,L,Ring
301,Temporal,1243,1,1,8,800,3.75,3.33333333333333,1,r,r,0,1200,0,800,L,S,=,0.25420694995612,0.208012955579023,1.15833696209499,1.64937042031852,1.44702994848908,167884.518706437,167884.788877059,167884.788877059,167887.988444326,3.2,167889.178606395,167889.178606395,167891.578632473,2.4,167893.385333068,167893.819358724,0.434025655820733,78,Shorter,Middle,77,=,Ring
301,Temporal,1243,1,1,9,1200,10,5,1,l,l,-1600,0,-1600,-400,S,=,L,0.21458612780475,0.458309627832971,1.92495857456588,1.55137660131633,1.78599363465196,167895.418690365,167895.649042419,167895.649042419,167897.248816732,1.6,167899.209015202,167899.209015202,167901.608804529,2.4,167903.302049058,167903.771405263,0.469356205197982,77,Longer,Ring,77,L,Ring
301,Temporal,1243,1,1,10,800,5,5,1,m,m,-800,400,-800,0,L,S,=,0.407974053316038,0.20037871374774,1.03862192843147,1.1456736355509,1.32190468452863,167905.702108855,167906.129148374,167906.129148374,167908.528724688,2.4,167909.609144293,167909.609144293,167911.208935608,1.6,167912.502087618,167912.939411117,0.437323498830665,78,Shorter,Middle,78,S,Middle
301,Temporal,1243,1,1,11,1200,3.33333333333333,7.5,1,m,m,-800,0,-800,400,L,S,=,0.285750665730877,0.336832603481888,1.58350760582851,1.72171078582432,1.62591735526355,167914.402166182,167914.698850756,167914.698850756,167917.098833847,2.4,167918.71945618,167918.71945618,167920.318847134,1.6,167922.185544243,167922.587415457,0.401871213427512,78,Shorter,Middle,78,S,Middle
301,Temporal,1243,1,1,12,800,5,5,1,l,l,-1600,-1200,-1600,-800,=,L,S,0.433361549843054,0.442117744914823,1.36485073180956,1.56333740789322,1.91477318268282,167924.352175951,167924.799073425,167924.799073425,167925.598961366,0.8,167926.999255384,167926.999255384,167928.598989275,1.6,167930.318862603,167930.739428697,0.420566093351226,78,Longer,Middle,78,L,Middle
301,Temporal,1243,1,1,13,800,1.25,3.33333333333333,1,r,r,0,400,0,800,L,S,=,0.249144313551243,0.488885364727616,1.09172685625585,1.00283505761261,1.80458445887896,167932.802241699,167933.069319149,167933.069319149,167936.26913183,3.2,167937.389515005,167937.389515005,167939.789365284,2.4,167940.935647574,167941.307353516,0.371705942263361,78,Shorter,Middle,77,=,Ring
301,Temporal,1243,1,1,14,1200,5,5,1,m,m,-800,0,-800,400,=,L,S,0.498974923732459,0.485801258120731,1.22773272336744,1.47409511949025,1.54604561815704,167943.252298786,167943.769626061,167943.769626061,167945.369430849,1.6,167946.629713145,167946.629713145,167949.029253209,2.4,167950.652303405,167951.027396478,0.375093072652817,78,Longer,Middle,78,L,Middle
301,Temporal,1243,1,1,15,1600,5,5,2,l,l,-1600,0,-1600,0,L,S,=,0.306864676413221,0.427185686599239,1.76797220256322,1.37951409354026,1.48112904119633,167952.73569713,167953.05963735,167953.05963735,167956.259437519,3.2,167958.049777505,167958.049777505,167961.249611679,3.2,167962.785768308,167963.227473855,0.441705547680613,77,Equals to,Ring,66,L,Index
301,Temporal,1243,1,1,16,1600,7.5,20,2,r,r,0,1200,0,1600,L,S,=,0.264529260693942,0.374496506054697,1.50598841276637,1.33641190434732,1.8873416506095,167964.869084935,167965.149737437,167965.149737437,167966.749516561,1.6,167968.289883575,167968.289883575,167969.089726603,0.8,167970.56865721,167970.899450114,0.330792903492693,78,Shorter,Middle,78,S,Middle
301,Temporal,1243,1,1,17,1200,3.33333333333333,7.5,1,r,r,0,800,0,1200,=,L,S,0.220069837176297,0.314983622675246,1.76079505249064,1.17104677309999,1.17772454779092,167972.935797926,167973.170125036,167973.170125036,167975.569599335,2.4,167977.359965626,167977.359965626,167978.959724219,1.6,167980.269201038,167980.683334568,0.414133530517574,77,Shorter,Ring,66,=,Index
301,Temporal,1243,1,1,18,800,1.66666666666667,5,1,l,l,-1600,-1200,-1600,-800,L,S,=,0.227539315053291,0.278762174574657,1.05928173630754,1.55673074842187,1.1503325777643,167982.019176251,167982.260068571,167982.260068571,167984.659981727,2.4,167985.740308621,167985.740308621,167987.339774322,1.6,167989.035829717,167990.339354784,1.30352506699273,78,Shorter,Middle,78,S,Middle
301,Temporal,1243,1,1,19,800,1.66666666666667,5,1,m,m,-800,-400,-800,0,S,=,L,0.275519788998667,0.421984716997279,1.38553729846704,1.61871202783429,1.53076129556485,167991.652548498,167991.940091502,167991.940091502,167994.339983806,2.4,167995.750221398,167995.750221398,167997.349992182,1.6,167999.119228895,167999.491473247,0.372244352212874,66,Shorter,Index,66,S,Index
301,Temporal,1243,1,1,20,800,1.66666666666667,5,1,r,r,0,400,0,800,S,=,L,0.231580769354263,0.421043869467274,1.28555355972113,1.80699975217532,1.05261110372878,168001.169269492,168001.420456344,168001.420456344,168003.820264918,2.4,168005.140253251,168005.140253251,168006.740065097,1.6,168008.685947179,168009.051347544,0.365400365524692,66,Shorter,Index,66,S,Index
301,Temporal,1243,1,1,21,800,15,5,1,r,r,0,1200,0,800,L,S,=,0.317603136852451,0.200980863641977,1.71906173397043,1.53165803228708,1.55234127089524,168010.319354072,168010.650351612,168010.650351612,168011.450163202,0.8,168013.200514916,168013.200514916,168014.800337349,1.6,168016.486050565,168016.891268704,0.405218139116187,66,Longer,Index,66,L,Index
301,Temporal,1243,1,1,22,800,15,5,1,m,m,-800,400,-800,0,L,S,=,0.233371386373972,0.265539069021698,1.26282354442165,1.90216038636831,1.66246080255558,168018.586030555,168018.830732718,168018.830732718,168019.630217731,0.8,168020.930474184,168020.930474184,168022.530399273,1.6,168024.586021573,168026.059258839,1.47323726600735,66,Longer,Index,66,L,Index
301,Temporal,1243,1,1,23,1600,10,20,2,m,m,-800,800,-800,800,=,L,S,0.41120900570053,0.230853522514502,1.29502388619443,1.05016303675263,1.45318743607383,168027.886086471,168028.310710031,168028.310710031,168029.910518669,1.6,168031.230563784,168031.230563784,168032.030376015,0.8,168033.236136299,168033.715160358,0.479024058498908,77,Shorter,Ring,77,S,Ring
301,Temporal,1243,1,1,24,1200,2.5,5,1,m,m,-800,0,-800,400,=,L,S,0.425689680992099,0.405716743023739,1.77093799135768,1.92198312197087,1.02487251359065,168035.319451275,168035.760855017,168035.760855017,168038.960670264,3.2,168040.750744626,168040.750744626,168043.150792519,2.4,168045.219502892,168045.587484108,0.367981216404587,77,Shorter,Ring,66,=,Index
301,Temporal,1243,1,1,25,1600,5,5,2,l,l,-1600,-400,-1600,0,S,=,L,0.499822560359673,0.36368468876313,1.17255973092223,1.09038391115634,1.64376557348628,168076.036379251,168076.551534697,168076.551534697,168078.951053908,2.4,168080.161385752,168080.161385752,168083.361206452,3.2,168084.586348791,168084.987218292,0.400869501347188,77,Longer,Ring,77,L,Ring
301,Temporal,1243,1,1,26,800,5,5,1,m,m,-800,400,-800,0,=,L,S,0.265431462863182,0.202143739391083,1.67478872278188,1.61605014305136,1.83453727105735,168086.786395371,168087.071490336,168087.071490336,168089.471312384,2.4,168091.171397015,168091.171397015,168092.771450746,1.6,168094.536394168,168094.931336213,0.394942045531934,77,Shorter,Ring,77,S,Ring
301,Temporal,1243,1,1,27,800,1.25,3.33333333333333,1,r,r,0,400,0,800,=,L,S,0.436221174321583,0.207436265436287,1.2308415654703,1.91740093206123,1.26003354521928,168096.919810124,168097.371607846,168097.371607846,168100.571307925,3.2,168101.831525098,168101.831525098,168104.231313783,2.4,168106.319857241,168106.835298084,0.515440842980752,77,Shorter,Ring,66,=,Index
301,Temporal,1243,1,1,28,800,1.25,3.33333333333333,1,r,r,0,400,0,800,S,=,L,0.282318794698481,0.44434290341728,1.85131570693944,1.90246632845147,1.92872889005485,168108.25318452,168108.551686436,168108.551686436,168111.751483718,3.2,168113.631584062,168113.631584062,168116.03153026,2.4,168118.086534054,168118.459268912,0.372734858217882,66,Shorter,Index,66,S,Index
301,Temporal,1243,1,1,29,1200,5,5,1,r,r,0,1600,0,1200,S,=,L,0.459970024738166,0.344590236351141,1.20224197198428,1.79550066969045,1.32568096224177,168120.536584724,168121.011976781,168121.011976781,168124.211846885,3.2,168125.442142549,168125.442142549,168127.841891133,2.4,168129.786654588,168130.283328666,0.496674077701755,66,Shorter,Index,66,S,Index
301,Temporal,1243,1,1,30,1200,20,7.5,1,l,l,-1600,0,-1600,-400,L,S,=,0.423728026467352,0.433553917709357,1.51569379091696,1.64815330009207,1.93553143917815,168131.769974807,168132.211909798,168132.211909798,168133.011890771,0.8,168134.552158336,168134.552158336,168136.151966012,1.6,168137.953313386,168138.475405887,0.522092500643339,66,Longer,Index,66,L,Index
301,Temporal,1243,1,1,31,1600,3.75,5,2,l,l,-1600,-400,-1600,0,L,S,=,0.206135377627628,0.296335823771552,1.34164045533419,1.11247005530267,1.00648149019114,168140.553333147,168140.772103292,168140.772103292,168143.972000023,3.2,168145.342130968,168145.342130968,168148.541961614,3.2,168149.803432858,168150.867313788,1.06388092978159,77,Equals to,Ring,66,L,Index
301,Temporal,1243,1,1,32,800,3.75,3.33333333333333,1,r,r,0,1200,0,800,=,L,S,0.313839919721807,0.219017881105937,1.53340904563732,1.6540088860031,1.0276145849925,168152.020085083,168152.352404006,168152.352404006,168155.552222781,3.2,168157.122345129,168157.122345129,168159.522129322,2.4,168161.32008165,168161.731305032,0.411223381059244,77,Shorter,Ring,66,=,Index
301,Temporal,1243,1,1,33,1200,6.66666666666667,7.5,1,m,m,-800,800,-800,400,S,=,L,0.350850717598035,0.219400367104157,1.2214136404999,1.74047014468953,1.44877883918856,168162.920170063,168163.282439368,168163.282439368,168165.682233506,2.4,168166.942341286,168166.942341286,168168.54220029,1.6,168170.420141031,168171.571240307,1.15109927565209,66,Shorter,Index,66,S,Index
301,Temporal,1243,1,1,34,1200,3.33333333333333,7.5,1,l,l,-1600,-800,-1600,-400,S,=,L,0.220259371774591,0.499077366297586,1.13017918013019,1.78087465682892,1.0514570223019,168173.170176079,168173.402574849,168173.402574849,168175.802313809,2.4,168176.962365737,168176.962365737,168178.562402145,1.6,168180.486854021,168180.867232625,0.380378603935242,66,Shorter,Index,66,S,Index
301,Temporal,1243,1,1,35,1200,20,7.5,1,r,r,0,1600,0,1200,L,S,=,0.489186713422048,0.258183437695259,1.77331497821767,1.43054037621921,1.19864436054212,168182.07024149,168182.572792311,168182.572792311,168183.372623469,0.8,168185.172753365,168185.172753365,168186.772531207,1.6,168188.353637902,168188.795247577,0.441609675588552,66,Longer,Index,66,L,Index
301,Temporal,1243,1,1,36,1600,15,20,2,l,l,-1600,-400,-1600,0,L,S,=,0.237795890019113,0.322157651367425,1.99332519943501,1.49619779759054,1.32789578896601,168190.186936692,168190.442918248,168190.442918248,168191.242742349,0.8,168193.26295643,168193.26295643,168194.062733052,0.8,168195.703648704,168196.075236054,0.37158735000412,77,Equals to,Ring,77,=,Ring
301,Temporal,1243,1,1,37,800,2.5,3.33333333333333,1,l,l,-1600,-1200,-1600,-800,L,S,=,0.486771086873405,0.438777950934969,1.20645870726323,1.77654314948634,1.5870849815098,168197.553643363,168198.052898907,168198.052898907,168199.652687976,1.6,168200.893121941,168200.893121941,168203.292897473,2.4,168205.220389658,168205.627281182,0.406891524064122,66,Longer,Index,66,L,Index
301,Temporal,1243,1,1,38,1200,10,7.5,1,m,m,-800,0,-800,400,L,S,=,0.440401712301406,0.430131805472553,1.42154277866281,1.42831342732046,1.29714535313351,168207.353730236,168207.813093428,168207.813093428,168208.612896036,0.8,168210.05295633,168210.05295633,168211.653031555,1.6,168213.237047866,168213.571266612,0.334218746458646,66,Longer,Index,66,L,Index
301,Temporal,1243,1,1,39,800,7.5,3.33333333333333,1,m,m,-800,400,-800,0,=,L,S,0.210084968150519,0.333462942805236,1.2634004600782,1.3068347175856,1.80212282781254,168215.020432511,168215.243305071,168215.243305071,168216.843122692,1.6,168218.132973294,168218.132973294,168220.532893828,2.4,168221.987152454,168222.571230362,0.584077907580649,78,Longer,Middle,78,L,Middle
301,Temporal,1243,1,1,40,800,1.25,3.33333333333333,1,l,l,-1600,-1200,-1600,-800,=,L,S,0.49840680682768,0.221051747808934,1.00697134216643,1.34046508717954,1.54491155341703,168224.52045577,168225.033290856,168225.033290856,168228.233170584,3.2,168229.273435422,168229.273435422,168231.673384828,2.4,168233.153763214,168233.923255856,0.769492642226396,77,Shorter,Ring,66,=,Index
301,Temporal,1243,1,1,41,400,2.5,5,2,l,l,-1600,-1200,-1600,-1200,S,=,L,0.368827445866473,0.260489098844952,1.04214907212433,1.58897066532991,1.91779606967839,168235.603861364,168235.983421246,168235.983421246,168237.583295649,1.6,168238.66349358,168238.66349358,168239.463247105,0.8,168241.18724738,168241.595232756,0.407985375873977,66,Shorter,Index,66,S,Index
301,Temporal,1243,1,1,42,1600,5,5,2,l,l,-1600,-400,-1600,0,=,L,S,0.279715993603594,0.343038212473385,1.68636589789807,1.21037679697665,1.32801690927158,168243.653858974,168243.95342916,168243.95342916,168246.353270135,2.4,168248.073671468,168248.073671468,168251.273590655,3.2,168252.637247212,168253.011339383,0.37409217088134,78,Longer,Middle,78,L,Middle
301,Temporal,1243,1,1,43,400,2.5,1.25,2,m,m,-800,0,-800,-400,=,L,S,0.380944535352637,0.247908874180781,1.88989583771892,1.47603774318103,1.4217181940946,168254.503980991,168254.903681775,168254.903681775,168258.103481945,3.2,168260.023725507,168260.023725507,168263.223645015,3.2,168264.837306304,168265.203293737,0.365987432916882,66,Equals to,Index,78,L,Middle
301,Temporal,1243,1,1,44,400,2.5,5,2,l,l,-1600,-1200,-1600,-1200,=,L,S,0.240653943843343,0.272061085492729,1.3363532544044,1.4639904523819,1.36905551003573,168266.770679288,168267.023740264,168267.023740264,168268.623579379,1.6,168269.993854684,168269.993854684,168270.793546615,0.8,168272.40401753,168272.859381,0.455363470100565,77,Shorter,Ring,77,S,Ring
301,Temporal,1243,1,1,45,1200,3.33333333333333,7.5,1,l,l,-1600,-800,-1600,-400,S,=,L,0.365076243145527,0.396714400078252,1.91839402068189,1.17676058234883,1.71278828138157,168274.370717335,168274.754138068,168274.754138068,168277.153937339,2.4,168279.103739263,168279.103739263,168280.703750969,1.6,168282.037468573,168283.091237009,1.05376843601698,66,Shorter,Index,66,S,Index
301,Temporal,1243,1,1,46,800,5,5,1,r,r,0,400,0,800,S,=,L,0.349503229624083,0.210694164831018,1.07528544649232,1.03474208423464,1.38206858368803,168284.937451659,168285.304066224,168285.304066224,168286.103886155,0.8,168287.213981536,168287.213981536,168288.813982656,1.6,168290.004098244,168290.395193233,0.391094989754492,77,Longer,Ring,77,L,Ring
301,Temporal,1243,1,1,47,1600,20,20,2,r,r,0,1600,0,1600,S,=,L,0.390421209194726,0.458610214384463,1.57235389491767,1.65987403017397,1.48629561260848,168291.920835407,168292.323982566,168292.323982566,168293.123963539,0.8,168294.724102353,168294.724102353,168295.523943778,0.8,168297.337550842,168297.739306792,0.401755950239021,78,Equals to,Middle,78,=,Middle
301,Temporal,1243,1,1,48,1200,5,5,1,m,m,-800,0,-800,400,L,S,=,0.286912185205954,0.2341958493951,1.76507327436419,1.36828155148444,1.01736211206756,168299.37088704,168299.674510237,168299.674510237,168301.273980108,1.6,168303.064055753,168303.064055753,168305.464025691,2.4,168306.987533319,168307.427068747,0.439535427605733,66,Longer,Index,66,L,Index
301,Temporal,1243,1,1,49,800,5,5,1,l,l,-1600,-400,-1600,-800,S,=,L,0.259698555856532,0.2415864942929,1.95593517961704,1.78622793135853,1.71919511246779,168308.987572457,168309.264290003,168309.264290003,168311.664289134,2.4,168313.654232352,168313.654232352,168315.254261381,1.6,168317.187571559,168317.651077942,0.463506383472122,66,Shorter,Index,66,S,Index
301,Temporal,1243,1,1,50,400,10,5,2,m,m,-800,0,-800,-400,L,S,=,0.375621578974217,0.437915056278366,1.99110943938992,1.60652566872265,1.67294245394667,168319.520959429,168319.91459353,168319.91459353,168320.714427576,0.8,168322.744471667,168322.744471667,168323.544346454,0.8,168325.287657245,168325.707088983,0.419431738031562,77,Equals to,Ring,77,=,Ring
301,Temporal,1243,1,1,51,1200,2.5,5,1,m,m,-800,0,-800,400,=,L,S,0.218402452079019,0.457535114938225,1.1586863750159,1.16340052939535,1.13744273841835,168327.521038987,168327.754612534,168327.754612534,168330.954421044,3.2,168332.144839113,168332.144839113,168334.544648008,2.4,168335.8544166,168336.259119033,0.404702432744671,77,Shorter,Ring,66,=,Index
301,Temporal,1243,1,1,52,400,5,5,2,m,m,-800,0,-800,-400,S,=,L,0.397288926919416,0.401535672816232,1.01467719109725,1.77934648300966,1.07284465370914,168337.537755972,168337.954944628,168337.954944628,168339.554728886,1.6,168340.604974511,168340.604974511,168341.404753379,0.8,168343.337721261,168343.739176226,0.401454964710865,66,Shorter,Index,66,S,Index
301,Temporal,1243,1,1,53,1200,6.66666666666667,7.5,1,l,l,-1600,0,-1600,-400,L,S,=,0.415905827303412,0.380158962846783,1.67614204856393,1.60470605457758,1.72201347393521,168344.987779374,168345.414724577,168345.414724577,168347.814617202,2.4,168349.524957226,168349.524957226,168351.124848952,1.6,168352.871105666,168353.331112101,0.460006435285322,78,Shorter,Middle,78,S,Middle
301,Temporal,1243,1,1,54,800,2.5,3.33333333333333,1,r,r,0,400,0,800,L,S,=,0.320838319305475,0.467405674667214,1.68333742601294,1.67429848690555,1.30142403706513,168355.204487761,168355.545088825,168355.545088825,168357.144870196,1.6,168358.855303252,168358.855303252,168361.255100919,2.4,168363.071160587,168363.435092643,0.363932055450277,66,Longer,Index,66,L,Index
301,Temporal,1243,1,1,55,800,7.5,3.33333333333333,1,r,r,0,1200,0,800,=,L,S,0.453088885266805,0.493624630679214,1.03227485559323,1.46168659383354,1.19188157458672,168364.887873979,168365.355300526,168365.355300526,168366.955106598,1.6,168368.015358995,168368.015358995,168370.414918627,2.4,168372.037947721,168372.563206145,0.525258424488129,78,Longer,Middle,78,L,Middle
301,Temporal,1243,1,1,56,1200,20,7.5,1,l,l,-1600,0,-1600,-400,S,=,L,0.411785314027413,0.384361158174072,1.69750256971428,1.44374829840394,1.84651130340355,168373.904598983,168374.335418831,168374.335418831,168375.135184546,0.8,168376.8654284,168376.8654284,168378.465286122,1.6,168380.071259073,168380.547172469,0.475913395057432,77,Longer,Ring,77,L,Ring
301,Temporal,1243,1,1,57,1200,6.66666666666667,7.5,1,l,l,-1600,0,-1600,-400,S,=,L,0.328548715953142,0.352538895025148,1.52240648396131,1.1828416316573,1.55399329721548,168382.554632716,168382.895455133,168382.895455133,168385.295315035,2.4,168386.845658986,168386.845658986,168388.445076567,1.6,168389.77137154,168390.139306279,0.367934738722397,66,Shorter,Index,66,S,Index
301,Temporal,1243,1,1,58,1600,6.66666666666667,5,2,m,m,-800,800,-800,800,=,L,S,0.380794430197462,0.403337985895092,1.55738872922878,1.41680580620362,1.41448015090664,168391.954695079,168392.355516104,168392.355516104,168394.755273671,2.4,168396.345521844,168396.345521844,168399.545417612,3.2,168401.104697534,168401.827203612,0.722506078367587,78,Longer,Middle,78,L,Middle
301,Temporal,1243,1,1,59,1200,2.5,5,1,r,r,0,800,0,1200,L,S,=,0.277255120081076,0.337600852134819,1.22375195141381,1.51871321691401,1.10653145176693,168403.388089397,168403.675733775,168403.675733775,168406.875380601,3.2,168408.125842511,168408.125842511,168410.525731285,2.4,168412.188168082,168412.547175677,0.359007594932336,78,Shorter,Middle,78,S,Middle
301,Temporal,1243,1,1,60,1600,5,5,2,r,r,0,1600,0,1600,L,S,=,0.232415976478292,0.421942382302814,1.05277810801305,1.48267318866895,1.15117760981426,168413.821461259,168414.065769156,168414.065769156,168417.265615842,3.2,168418.355905558,168418.355905558,168421.555713426,3.2,168423.188166326,168423.546997632,0.358831306017237,77,Equals to,Ring,77,=,Ring
301,Temporal,1243,1,1,61,1600,15,20,2,r,r,0,1200,0,1600,=,L,S,0.454407413098757,0.378240315758327,1.96934441276951,1.2433085484371,1.05467419137771,168424.854851599,168425.325918605,168425.325918605,168426.125695869,0.8,168428.126203413,168428.126203413,168428.925616567,0.8,168430.321593065,168430.731348661,0.409755595319439,66,Equals to,Index,66,=,Index
301,Temporal,1243,1,1,62,1600,20,20,2,r,r,0,1600,0,1600,L,S,=,0.29247971653382,0.205585815136533,1.55674298085312,1.56591979131957,1.69843223505695,168431.938226396,168432.246148979,168432.246148979,168433.045925922,0.8,168434.62618625,168434.62618625,168435.425933679,0.8,168437.138291262,168438.243201166,1.10490990441758,77,Equals to,Ring,77,=,Ring
301,Temporal,1243,1,1,63,800,2.5,3.33333333333333,1,m,m,-800,-400,-800,0,L,S,=,0.49112913116428,0.311873499600096,1.68681825249495,1.46597865074265,1.36073986867178,168440.08827312,168440.596107548,168440.596107548,168442.195891163,1.6,168443.906262626,168443.906262626,168446.306065747,2.4,168447.921622013,168448.259322742,0.33770072972402,66,Longer,Index,66,L,Index
301,Temporal,1243,1,1,64,400,1.66666666666667,1.25,2,m,m,-800,-400,-800,-400,S,=,L,0.456614298310106,0.403299545828263,1.14759825788111,1.41391300652743,1.78842718613712,168449.77164811,168450.246265751,168450.246265751,168452.646182436,2.4,168453.816236645,168453.816236645,168457.01611541,3.2,168458.588338404,168459.05930343,0.470965026499471,77,Longer,Ring,77,L,Ring
301,Temporal,1243,1,1,65,1200,2.5,5,1,r,r,0,800,0,1200,S,=,L,0.372666309759841,0.411118651449203,1.60448114287653,1.29987140666435,1.22105089820421,168460.988390181,168461.376605297,168461.376605297,168464.57641477,3.2,168466.20674585,168466.20674585,168468.606501813,2.4,168470.0551321,168470.427162742,0.37203064141795,66,Shorter,Index,78,=,Middle
301,Temporal,1243,1,1,66,1600,6.66666666666667,5,2,r,r,0,1600,0,1600,S,=,L,0.415807501767898,0.318967349375109,1.37313196361888,1.11925906081869,1.22849189371014,168471.788432784,168472.21654763,168472.21654763,168474.616436726,2.4,168476.026592193,168476.026592193,168479.226416101,3.2,168480.48803778,168480.899110384,0.411072604212677,77,Longer,Ring,77,L,Ring
301,Temporal,1243,1,1,67,800,2.5,3.33333333333333,1,r,r,0,400,0,800,=,L,S,0.317991009339176,0.397758419938721,1.19807421847934,1.46501235145665,1.76449374946921,168482.288520523,168482.626953287,168482.626953287,168484.226720221,1.6,168485.456760527,168485.456760527,168487.856536059,2.4,168489.471909572,168489.811100642,0.339191070699599,78,Longer,Middle,78,L,Middle
301,Temporal,1243,1,1,68,1200,5,5,1,m,m,-800,0,-800,400,=,L,S,0.302781985934905,0.272890548324317,1.1223704471176,1.37016335201365,1.01306432166378,168491.721876986,168492.037028839,168492.037028839,168493.63684229,1.6,168494.796946188,168494.796946188,168497.196766311,2.4,168498.705233465,168499.043101333,0.337867867492605,78,Longer,Middle,78,L,Middle
301,Temporal,1243,1,1,69,400,1.25,1.25,2,r,r,0,400,0,400,=,L,S,0.419780478955617,0.402759224309473,1.92241314858547,1.05471292926371,1.37956413348141,168500.205257686,168500.63698027,168500.63698027,168503.836787818,3.2,168505.797108193,168505.797108193,168508.996903871,3.2,168510.188693425,168510.539093395,0.350399969844148,66,Equals to,Index,78,L,Middle
301,Temporal,1243,1,1,70,800,5,5,1,m,m,-800,400,-800,0,L,S,=,0.295633137180061,0.349801141307293,1.84416424891751,1.20156032577973,1.01716272436349,168512.071996276,168512.387048681,168512.387048681,168514.78688741,2.4,168516.667409288,168516.667409288,168518.26713131,1.6,168519.622024844,168520.0030967,0.381071856740164,78,Shorter,Middle,78,S,Middle
301,Temporal,1243,1,1,71,1600,3.75,5,2,l,l,-1600,-400,-1600,0,S,=,L,0.446245300250764,0.316036217315611,1.54861913747697,1.22419268655012,1.82466884074328,168521.172038333,168521.637163127,168521.637163127,168524.836987677,3.2,168526.417339112,168526.417339112,168529.617221728,3.2,168530.988771294,168531.395079028,0.406307734287111,78,Equals to,Middle,78,=,Middle
301,Temporal,1243,1,1,72,1200,6.66666666666667,7.5,1,m,m,-800,800,-800,400,S,=,L,0.47032583359201,0.275510514359331,1.72663062011367,1.79403424554312,1.59453675190901,168533.355441393,168533.837358559,168533.837358559,168536.237255033,2.4,168537.99736939,168537.99736939,168539.597179632,1.6,168541.538780613,168541.867124194,0.328343581350055,66,Shorter,Index,66,S,Index
301,Temporal,1243,1,1,73,1200,10,7.5,1,m,m,-800,0,-800,400,=,L,S,0.49994477189607,0.456195474432367,1.41081887239661,1.64940596856487,1.1838511832302,168542.888821307,168543.407758686,168543.407758686,168544.207497454,0.8,168545.647780385,168545.647780385,168547.247296131,1.6,168549.038416984,168549.426920536,0.388503552385373,78,Longer,Middle,78,L,Middle
301,Temporal,1243,1,1,74,400,5,5,2,r,r,0,400,0,400,=,L,S,0.337774531571456,0.20412421151443,1.49893032702685,1.28465202302862,1.2368431327531,168550.755537441,168551.107787141,168551.107787141,168551.907581728,0.8,168553.437693348,168553.437693348,168554.237446873,0.8,168555.67178089,168556.691285001,1.01950411091093,66,Equals to,Index,66,=,Index
301,Temporal,1243,1,1,75,1600,10,20,2,r,r,0,1600,0,1600,=,L,S,0.29065719019502,0.284176104202042,1.39785413519372,1.94961600322356,1.38315919980239,168558.138915221,168558.447822025,168558.447822025,168560.047627776,1.6,168561.467778787,168561.467778787,168562.267688542,0.8,168564.372308023,168564.747099069,0.374791045993334,77,Shorter,Ring,77,S,Ring
301,Temporal,1243,1,1,76,400,10,5,2,r,r,0,800,0,400,S,=,L,0.495610986328486,0.463924271318908,1.38681577220954,1.92129793488174,1.2025374998278,168566.322307053,168566.838023902,168566.838023902,168567.6377585,0.8,168569.057988428,168569.057988428,168569.857770825,0.8,168571.922275486,168572.355239609,0.432964122475823,78,Equals to,Middle,78,=,Middle
301,Temporal,1243,1,1,77,800,5,5,1,m,m,-800,-400,-800,0,S,=,L,0.48929407742261,0.399222247903076,1.46905351767173,1.90957184074597,1.33253219504439,168573.705680342,168574.207851654,168574.207851654,168575.007601329,0.8,168576.508118337,168576.508118337,168578.10764467,1.6,168580.155725568,168580.571094663,0.415369094262132,77,Longer,Ring,77,L,Ring
301,Temporal,1243,1,1,78,400,5,5,2,m,m,-800,0,-800,-400,=,L,S,0.391458202373355,0.40710574583085,1.57388444398925,1.66133556686607,1.92805565508123,168582.055701467,168582.458076777,168582.458076777,168584.057884774,1.6,168585.658009793,168585.658009793,168586.457835499,0.8,168588.27195624,168588.755264439,0.483308198512532,77,Shorter,Ring,77,S,Ring
301,Temporal,1243,1,1,79,400,3.33333333333333,1.25,2,l,l,-1600,-800,-1600,-1200,=,L,S,0.438595257486876,0.407334877603076,1.32854492219614,1.26096919238731,1.22605656564892,168590.83906494,168591.288095104,168591.288095104,168593.688162245,2.4,168595.048168363,168595.048168363,168598.24796757,3.2,168599.655619213,168600.05098985,0.395370636833832,78,Longer,Middle,78,L,Middle
301,Temporal,1243,1,1,80,1200,10,7.5,1,r,r,0,800,0,1200,L,S,=,0.252611238169634,0.293712491540635,1.60192781701748,1.67937084875672,1.33140282667881,168601.42246492,168601.688368235,168601.688368235,168602.488142291,0.8,168604.118359487,168604.118359487,168605.718017348,1.6,168607.5558107,168608.003142896,0.447332195763011,66,Longer,Index,66,L,Index
301,Temporal,1243,1,1,81,1600,7.5,20,2,m,m,-800,400,-800,800,L,S,=,0.496972815834871,0.354324311571133,1.24488678382546,1.00414027829139,1.93638183189655,168609.489173098,168609.998144447,168609.998144447,168611.598122469,1.6,168612.86861685,168612.86861685,168613.668141001,0.8,168614.82256845,168615.17117666,0.348608209053054,78,Shorter,Middle,78,S,Middle
301,Temporal,1243,1,1,82,1200,10,5,1,m,m,-800,800,-800,400,=,L,S,0.390007488392338,0.331593732163443,1.0567251232346,1.18507208480054,1.44704807333596,168617.255884709,168617.658459558,168617.658459558,168619.258316958,1.6,168620.348800759,168620.348800759,168622.748510527,2.4,168624.072562812,168625.226972763,1.1544099507737,78,Longer,Middle,78,L,Middle
301,Temporal,1243,1,1,83,1200,5,5,1,l,l,-1600,0,-1600,-400,=,L,S,0.276665664475237,0.450141252328921,1.29862178139967,1.63878551349776,1.33317930808815,168626.822616787,168627.118520529,168627.118520529,168630.318462814,3.2,168631.648609658,168631.648609658,168634.048473731,2.4,168635.822622562,168636.9710024,1.14837983838515,77,Shorter,Ring,77,S,Ring
301,Temporal,1243,1,1,84,1200,5,5,1,l,l,-1600,-800,-1600,-400,=,L,S,0.367230701799396,0.377187538667826,1.17397925005135,1.68850510095516,1.36621273588121,168638.455985184,168638.838993366,168638.838993366,168640.438495317,1.6,168641.649138018,168641.649138018,168644.048563876,2.4,168645.889372444,168646.251251368,0.361878923606128,78,Longer,Middle,78,L,Middle
301,Temporal,1243,1,1,85,800,15,5,1,r,r,0,1200,0,800,L,S,=,0.402522570145119,0.416955101793263,1.55044235068016,1.40777087735766,1.63559290555369,168647.772708681,168648.189149227,168648.189149227,168648.988628787,0.8,168650.569094107,168650.569094107,168652.168982946,1.6,168653.722775929,168654.146807909,0.424031979811843,66,Longer,Index,66,L,Index
301,Temporal,1243,1,1,86,1200,5,5,1,m,m,-800,800,-800,400,S,=,L,0.480070152855421,0.436651556965699,1.73440409331417,1.13913004030042,1.7025731488512,168655.92275316,168656.419084274,168656.419084274,168659.618907862,3.2,168661.389100529,168661.389100529,168663.788944071,2.4,168665.072798281,168666.362990181,1.29019190045074,66,Shorter,Index,77,L,Ring
301,Temporal,1243,1,1,87,800,15,5,1,m,m,-800,400,-800,0,=,L,S,0.392396751043469,0.211884113623671,1.01958392236558,1.69311961161025,1.36411898480898,168668.206156572,168668.609226098,168668.609226098,168669.409118209,0.8,168670.459383403,168670.459383403,168672.059177926,1.6,168673.889552198,168674.26701942,0.377467222686391,78,Longer,Middle,78,L,Middle
301,Temporal,1243,1,1,88,1200,5,5,1,r,r,0,1600,0,1200,S,=,L,0.269320965385115,0.441985253860306,1.87299777318615,1.69167680645896,1.21986611259866,168675.789536021,168676.069400312,168676.069400312,168679.269014737,3.2,168681.179288099,168681.179288099,168683.579147681,2.4,168685.406246461,168685.738932416,0.332685955218039,66,Shorter,Index,78,=,Middle
301,Temporal,1243,1,1,89,1200,20,7.5,1,l,l,-1600,0,-1600,-400,S,=,L,0.291690360765025,0.314258752877003,1.11312453513818,1.08473115045859,1.50179309444239,168687.106263047,168687.409380339,168687.409380339,168688.209247749,0.8,168689.349525771,168689.349525771,168690.949439954,1.6,168692.189644685,168692.578999862,0.389355176885147,77,Longer,Ring,77,L,Ring
301,Temporal,1243,1,1,90,800,1.66666666666667,5,1,l,l,-1600,-1200,-1600,-800,=,L,S,0.363936607611064,0.397870622851449,1.00907970436608,1.92956628710118,1.85048926785373,168694.222957607,168694.599539486,168694.599539486,168696.999528992,2.4,168698.029707499,168698.029707499,168699.629481812,1.6,168701.706307189,168702.107046445,0.400739255768713,77,Shorter,Ring,77,S,Ring
301,Temporal,1243,1,1,91,1200,10,5,1,l,l,-1600,0,-1600,-400,L,S,=,0.374644958527686,0.261913918644576,1.29231741590838,1.50257491882147,1.49197745104971,168704.106341643,168704.499400226,168704.499400226,168706.099490207,1.6,168707.409902605,168707.409902605,168709.809451329,2.4,168711.456370146,168711.899035638,0.442665491253138,66,Longer,Index,66,L,Index
301,Temporal,1243,1,1,92,400,3.33333333333333,1.25,2,r,r,0,800,0,400,L,S,=,0.412807336724009,0.274260138791208,1.75315090471469,1.63982534136056,1.88521703099487,168713.556404504,168713.979831152,168713.979831152,168716.379784408,2.4,168718.159588299,168718.159588299,168721.359686172,3.2,168723.13975091,168723.626841042,0.48709013152984,66,Longer,Index,66,L,Index
301,Temporal,1243,1,1,93,800,5,5,1,l,l,-1600,-1200,-1600,-800,L,S,=,0.258051664945516,0.45084294843235,1.69413710594627,1.93041741316028,1.68049485309534,168725.656457148,168725.930207597,168725.930207597,168726.729663418,0.8,168728.450027858,168728.450027858,168730.049920547,1.6,168732.139858709,168732.587045251,0.447186542616691,66,Longer,Index,66,L,Index
301,Temporal,1243,1,1,94,800,7.5,3.33333333333333,1,l,l,-1600,-400,-1600,-800,S,=,L,0.247707656880335,0.488434234329468,1.25089585476831,1.95299220364541,1.97980731223789,168734.423174854,168734.689837828,168734.689837828,168736.289849534,1.6,168737.570178738,168737.570178738,168739.970004315,2.4,168742.073206982,168742.579018468,0.505811485927552,77,Longer,Ring,77,L,Ring
301,Temporal,1243,1,1,95,400,5,5,2,r,r,0,400,0,400,S,=,L,0.241261757058597,0.230165188507856,1.43995735586381,1.74430157123819,1.05670569386091,168744.689903949,168744.950369673,168744.950369673,168745.750160411,0.8,168747.230293668,168747.230293668,168748.030047193,0.8,168749.923298402,168750.250942436,0.327644033561228,78,Equals to,Middle,78,=,Middle
301,Temporal,1243,1,1,96,800,7.5,3.33333333333333,1,l,l,-1600,-400,-1600,-800,L,S,=,0.471171053438436,0.34178635875498,1.83516677606454,1.980273908234,1.69932772243429,168751.456573855,168751.940325367,168751.940325367,168753.540150687,1.6,168755.410484539,168755.410484539,168757.810361765,2.4,168759.939961613,168760.387002521,0.44704090768937,66,Longer,Index,66,L,Index
