Subject,Task,SequenceOrder,ListNo,RunNo,TrialNo,Aud_Probe_Dist,Aud_Standard_Vel,Aud_Probe_Vel,Main_Control,Aud_Std_StartCode,Aud_Probe_StartCode,Aud_Std_StartPt,Aud_Std_EndPt,Aud_Probe_StartPt,Aud_Probe_EndPt,RespIndex,RespMiddle,RespRing,ISI_Cross_Std,ISI_Cross_Probe,ISI_Std_Probe,ISI_Probe_Response,ITI,TrialOnset,StdOnset,StdOnsetByStop,StdOffset,StdDur,ProbeOnset,ProbeOnsetByStop,ProbeOffset,ProbeDur,RespWinStart,RespTime,RT,CorrectKC,CorrectResponse,CorrectFinger,SubjRespKC,SubjResponse,SubjRespFinger
205,Spatial,2314,1,3,1,1200,10,5,1,l,l,-1600,0,-1600,-400,=,L,S,0.346800270264151,0.355527337260023,1.63756810763277,1.48712898104248,1.19422131726128,788376.154950823,788376.512785362,788376.512785362,788378.112735795,1.6,788379.773026239,788379.773026239,788382.172807866,2.4,788383.804997757,788384.998806617,1.19380885967985,77,Shorter,Ring,66,=,Index
205,Spatial,2314,1,3,2,800,7.5,3.33333333333333,1,m,m,-800,400,-800,0,L,S,=,0.317240826365658,0.32854323587904,1.70187503126908,1.55367060175191,1.96423141985675,788386.338401682,788386.67337139,788386.67337139,788388.272858264,1.6,788390.003339833,788390.003339833,788392.40315354,2.4,788394.105070626,788395.622755309,1.5176846832037,78,Shorter,Middle,66,L,Index
205,Spatial,2314,1,3,3,800,5,5,1,r,r,0,400,0,800,L,S,=,0.433745532633121,0.309653233802185,1.04508100119972,1.43394407185101,1.92385120668749,788397.738448968,788398.183119756,788398.183119756,788398.983098484,0.8,788400.063401959,788400.063401959,788401.663278929,1.6,788403.238454261,788403.790743519,0.552289257990196,66,Longer,Index,66,L,Index
205,Spatial,2314,1,3,4,400,10,5,2,m,m,-800,0,-800,-400,L,S,=,0.231852052426259,0.21764267129174,1.65855264333289,1.74201224875835,1.65992518903693,788405.855139037,788406.103607414,788406.103607414,788406.903359334,0.8,788408.59356423,788408.59356423,788409.393386086,0.8,788411.271803859,788411.774753793,0.502949933405034,78,Shorter,Middle,78,S,Middle
205,Spatial,2314,1,3,5,1200,10,7.5,1,m,m,-800,0,-800,400,=,L,S,0.342759828227134,0.218083106951824,1.99235395206188,1.21105118493717,1.32948729514275,788413.571864587,788413.933666483,788413.933666483,788414.733466524,0.8,788416.763579908,788416.763579908,788418.363477729,1.6,788419.721848114,788420.166645654,0.444797540316358,78,Longer,Middle,78,L,Middle
205,Spatial,2314,1,3,6,800,7.5,3.33333333333333,1,l,l,-1600,-400,-1600,-800,L,S,=,0.439107829552196,0.204112167341816,1.31890408596533,1.2813015986422,1.09620937408408,788421.655214361,788422.113454426,788422.113454426,788423.713370854,1.6,788425.053961082,788425.053961082,788427.453488313,2.4,788428.888136395,788431.6068044,2.71866800507996,78,Shorter,Middle,66,L,Index
205,Spatial,2314,1,3,7,800,1.66666666666667,5,1,r,r,0,400,0,800,S,=,L,0.272828012878135,0.406828087908892,1.42683488947793,1.03217623051037,1.71831427676771,788432.855275057,788433.143897239,788433.143897239,788435.54370036,2.4,788436.993871045,788436.993871045,788438.593697649,1.6,788439.771950947,788441.094744656,1.32279370923061,77,Longer,Ring,66,S,Index
205,Spatial,2314,1,3,8,1600,7.5,20,2,r,r,0,1200,0,1600,L,S,=,0.45293762969633,0.273027489319059,1.79996518447336,1.60550441261245,1.20872088298444,788442.955332834,788443.42419946,788443.42419946,788445.023620249,1.6,788446.854231774,788446.854231774,788447.653668988,0.8,788449.405336026,788449.966686332,0.561350306263193,66,Longer,Index,78,S,Middle
205,Spatial,2314,1,3,9,800,7.5,3.33333333333333,1,l,l,-1600,-400,-1600,-800,S,=,L,0.250093150328677,0.485307543614752,1.67838610213526,1.70868741719177,1.31581865372965,788451.322063243,788451.584004335,788451.584004335,788453.183879701,1.6,788454.894201118,788454.894201118,788457.294074495,2.4,788459.138708946,788459.830804613,0.692095666890964,66,Shorter,Index,77,L,Ring
205,Spatial,2314,1,3,10,400,2.5,1.25,2,l,l,-1600,-800,-1600,-1200,S,=,L,0.239264152646053,0.257305787731624,1.7777987128802,1.47227185452093,1.91688004022301,788461.305443783,788461.564059122,788461.564059122,788464.764099251,3.2,788466.564396926,788466.564396926,788469.763975742,3.2,788471.372157415,788471.742681307,0.370523891877383,66,Shorter,Index,78,=,Middle
205,Spatial,2314,1,3,11,1600,5,5,2,l,l,-1600,-400,-1600,0,L,S,=,0.267730771196997,0.433679341269344,1.37862663990696,1.2758075056728,1.21755051323434,788473.805488214,788474.084217508,788474.084217508,788476.484239095,2.4,788477.894356707,788477.894356707,788481.094391062,3.2,788482.505496779,788485.046720619,2.54122383974027,66,Longer,Index,78,S,Middle
205,Spatial,2314,1,3,12,1600,5,5,2,l,l,-1600,-400,-1600,0,L,S,=,0.217099251394979,0.375770243159398,1.61257599871084,1.95797188289863,1.41653897264661,788486.405571815,788486.634710597,788486.634710597,788489.034529757,2.4,788490.684689279,788490.684689279,788493.884520566,3.2,788495.988911805,788496.42298526,0.434073455282487,66,Longer,Index,77,=,Ring
205,Spatial,2314,1,3,13,1600,10,20,2,r,r,0,1600,0,1600,L,S,=,0.349939142869367,0.307897420681717,1.77493280275827,1.51447463768671,1.0696709080515,788497.988950943,788498.354637107,788498.354637107,788499.954488092,1.6,788501.764753722,788501.764753722,788502.564551197,0.8,788504.222311191,788504.918697583,0.696386391762644,77,Equals to,Ring,77,=,Ring
205,Spatial,2314,1,3,14,800,5,5,1,l,l,-1600,-1200,-1600,-800,S,=,L,0.463364144584159,0.283144899826524,1.70475655958885,1.62432550193123,1.57151977688919,788506.138989327,788506.61475191,788506.61475191,788507.414518908,0.8,788509.144723304,788509.144723304,788510.744746558,1.6,788512.505650443,788513.022718225,0.517067781300284,77,Longer,Ring,77,L,Ring
205,Spatial,2314,1,3,15,1200,20,7.5,1,l,l,-1600,0,-1600,-400,L,S,=,0.235909055564413,0.270773137157623,1.04018058693833,1.9745342688889,1.23563526209779,788514.739077098,788514.99500508,788514.99500508,788515.794894625,0.8,788516.865031889,788516.865031889,788518.464900518,1.6,788520.572384928,788521.150785532,0.5784006039612,78,Shorter,Middle,77,=,Ring
205,Spatial,2314,1,3,16,400,3.33333333333333,1.25,2,l,l,-1600,-800,-1600,-1200,L,S,=,0.338911153313375,0.383569049236137,1.61367279670349,1.36850139148571,1.66042285059155,788522.539100132,788522.895097118,788522.895097118,788525.294874254,2.4,788526.935152116,788526.935152116,788530.134948436,3.2,788531.655812288,788533.462825963,1.80701367452275,78,Shorter,Middle,66,L,Index
205,Spatial,2314,1,3,17,400,5,5,2,r,r,0,400,0,400,=,L,S,0.229435414125803,0.285454421288356,1.62913353369697,1.07475078711181,1.092935079052,788535.255817661,788535.505113707,788535.505113707,788536.304873006,0.8,788537.965111801,788537.965111801,788538.764947451,0.8,788539.97246686,788540.606663889,0.634197028237395,66,Equals to,Index,66,=,Index
205,Spatial,2314,1,3,18,1200,5,5,1,m,m,-800,0,-800,400,=,L,S,0.276950916928162,0.257695641577417,1.20619045377146,1.07882750332402,1.29115695857804,788541.839194223,788542.135208962,788542.135208962,788543.735094593,1.6,788544.975519896,788544.975519896,788547.375411558,2.4,788548.605841673,788550.582612732,1.97677105886396,78,Longer,Middle,78,L,Middle
205,Spatial,2314,1,3,19,400,1.66666666666667,1.25,2,m,m,-800,-400,-800,-400,=,L,S,0.432085177113167,0.271610103810899,1.24262080389252,1.58547910296279,1.26876571755485,788552.022579911,788552.465586427,788552.465586427,788554.865410079,2.4,788556.145401158,788556.145401158,788559.345297568,3.2,788561.072623724,788561.806650479,0.734026754973456,66,Equals to,Index,78,L,Middle
205,Spatial,2314,1,3,20,1200,3.33333333333333,7.5,1,m,m,-800,0,-800,400,=,L,S,0.301151981715824,0.272031931309341,1.71624323530785,1.0639717750008,1.67099698581871,788563.222637447,788563.535298594,788563.535298594,788565.935367339,2.4,788567.685668367,788567.685668367,788569.285626499,1.6,788570.506009667,788570.990472185,0.484462518361397,78,Longer,Middle,77,S,Ring
205,Spatial,2314,1,3,21,1200,6.66666666666667,7.5,1,l,l,-1600,0,-1600,-400,L,S,=,0.310637995103203,0.321451228898057,1.98031858294588,1.7839922857455,1.14656613778095,788572.806013687,788573.135820411,788573.135820411,788575.535693466,2.4,788577.555762865,788577.555762865,788579.155522421,1.6,788581.089394057,788582.014654229,0.925260171527043,78,Shorter,Middle,78,S,Middle
205,Spatial,2314,1,3,22,1200,3.33333333333333,7.5,1,l,l,-1600,-800,-1600,-400,=,L,S,0.499372091707887,0.408513461190349,1.14146206188573,1.77522028951009,1.01717065781654,788583.322723774,788583.835967242,788583.835967242,788586.235774533,2.4,788587.415881389,788587.415881389,788589.015605656,1.6,788590.939395718,788592.182636343,1.24324062478263,78,Longer,Middle,66,=,Index
205,Spatial,2314,1,3,23,800,15,5,1,r,r,0,1200,0,800,S,=,L,0.412643731213307,0.494668384972594,1.87780528361124,1.82406241185859,1.19091499962866,788593.356104811,788593.785944288,788593.785944288,788594.585802715,0.8,788596.495945831,788596.495945831,788598.096008866,1.6,788600.056146201,788601.414650186,1.35850398545153,66,Shorter,Index,77,L,Ring
205,Spatial,2314,1,3,24,800,7.5,3.33333333333333,1,r,r,0,1200,0,800,S,=,L,0.487950199381626,0.200729544285571,1.68100105545839,1.40933004831984,1.08906762768866,788602.756152418,788603.255843611,788603.255843611,788604.855829974,1.6,788606.56609076,788606.56609076,788608.966111705,2.4,788610.522510185,788611.038653094,0.516142909531482,66,Shorter,Index,77,L,Ring
205,Spatial,2314,1,3,25,800,5,5,1,m,m,-800,400,-800,0,=,L,S,0.352835480857287,0.373290906522795,1.79919943741256,1.52596870866364,1.0875561827641,788617.139576394,788617.506408463,788617.506408463,788619.90617822,2.4,788621.736478247,788621.736478247,788623.336287527,1.6,788625.006242804,788626.838769481,1.83252667705528,77,Shorter,Ring,77,S,Ring
205,Spatial,2314,1,3,26,1200,5,5,1,m,m,-800,0,-800,400,=,L,S,0.240020797276283,0.441852809808186,1.13621570466501,1.21738255393635,1.03780699406329,788628.072977288,788628.326424189,788628.326424189,788629.92635794,1.6,788631.086360785,788631.086360785,788633.486278753,2.4,788634.856299057,788636.414646978,1.55834792170208,78,Longer,Middle,66,=,Index
205,Spatial,2314,1,3,27,1200,20,7.5,1,l,l,-1600,0,-1600,-400,=,L,S,0.450887980868051,0.362825801533039,1.25375855083319,1.76926558178437,1.39250471103835,788637.606330575,788638.076659417,788638.076659417,788638.876406204,0.8,788640.156855067,788640.156855067,788641.756313069,1.6,788643.673047709,788644.326765236,0.653717527049594,77,Shorter,Ring,78,L,Middle
205,Spatial,2314,1,3,28,400,5,5,2,m,m,-800,0,-800,-400,S,=,L,0.234987759523438,0.253407538304803,1.86341992620137,1.41564409740469,1.54792317443659,788645.856393973,788646.106919693,788646.106919693,788647.706370958,1.6,788649.596532289,788649.596532289,788650.396523207,0.8,788651.956431389,788653.278435154,1.32200376538094,66,Shorter,Index,66,S,Index
205,Spatial,2314,1,3,29,1200,2.5,5,1,r,r,0,800,0,1200,=,L,S,0.27769085799843,0.257672312768852,1.92863440937861,1.13863506866394,1.95437532742038,788654.973084725,788655.266686393,788655.266686393,788658.46659756,3.2,788660.436887494,788660.436887494,788662.836658214,2.4,788664.123140214,788664.862566242,0.739426027634181,78,Longer,Middle,77,S,Ring
205,Spatial,2314,1,3,30,800,5,5,1,m,m,-800,-400,-800,0,L,S,=,0.429714036580021,0.232524273213416,1.83903667301028,1.42167733707264,1.18035779300531,788666.973164604,788667.416856626,788667.416856626,788668.216683615,0.8,788670.097081021,788670.097081021,788671.696882281,1.6,788673.256498082,788674.158737568,0.902239485643804,66,Longer,Index,66,L,Index
205,Spatial,2314,1,3,31,1200,20,7.5,1,l,l,-1600,0,-1600,-400,S,=,L,0.266239671033125,0.212372041970025,1.73403247901131,1.29188693268074,1.52587997529197,788675.473212244,788675.757071801,788675.757071801,788676.556919962,0.8,788678.327325321,788678.327325321,788679.926835935,1.6,788681.356566084,788681.822611975,0.466045891633257,66,Shorter,Index,77,L,Ring
205,Spatial,2314,1,3,32,400,3.33333333333333,1.25,2,r,r,0,800,0,400,L,S,=,0.202373543238828,0.407323518110962,1.47082308143162,1.30639885971105,1.48106165741613,788683.50657339,788683.727247815,788683.727247815,788686.127077563,2.4,788687.627410109,788687.627410109,788690.827242679,3.2,788692.273262866,788692.774496189,0.501233322778717,78,Shorter,Middle,66,L,Index
205,Spatial,2314,1,3,33,1200,2.5,5,1,r,r,0,800,0,1200,=,L,S,0.499670638388183,0.384695436219586,1.3148445800682,1.50479952644573,1.24021726397531,788694.40662212,788694.917343764,788694.917343764,788698.11722285,3.2,788699.467381314,788699.467381314,788701.867253407,2.4,788703.523353593,788703.998617023,0.475263429805636,78,Longer,Middle,66,=,Index
205,Spatial,2314,1,3,34,1200,20,7.5,1,r,r,0,1600,0,1200,=,L,S,0.45481500117113,0.282642386885906,1.1960779317044,1.02732625388823,1.57573354486659,788705.390012925,788705.857602439,788705.857602439,788706.657480756,0.8,788707.88747647,788707.88747647,788709.487312377,1.6,788710.673346082,788712.214594303,1.54124822071753,77,Shorter,Ring,78,L,Middle
205,Spatial,2314,1,3,35,1200,10,5,1,l,l,-1600,0,-1600,-400,S,=,L,0.282272540764317,0.377952886014684,1.81586141053402,1.35837750298234,1.34879778805029,788713.940061703,788714.237702908,788714.237702908,788715.837425892,1.6,788717.687578742,788717.687578742,788720.087433511,2.4,788721.59005309,788722.606610956,1.01655786670744,66,Shorter,Index,77,L,Ring
205,Spatial,2314,1,3,36,800,1.25,3.33333333333333,1,r,r,0,400,0,800,S,=,L,0.251673105565317,0.452364956405616,1.37494139313894,1.62497050455607,1.36355385757196,788724.10678852,788724.37777045,788724.37777045,788727.577644724,3.2,788728.977778021,788728.977778021,788731.37768476,2.4,788733.140137476,788733.5986108,0.458473323262297,77,Longer,Ring,78,=,Middle
205,Spatial,2314,1,3,37,800,5,5,1,m,m,-800,400,-800,0,S,=,L,0.418627924382832,0.396695597871681,1.59773804915175,1.30849335659528,1.28033214617174,788735.123495239,788735.557922182,788735.557922182,788737.957801654,2.4,788739.588052213,788739.588052213,788741.187831017,1.6,788742.640217394,788743.686482597,1.04626520304009,66,Shorter,Index,66,S,Index
205,Spatial,2314,1,3,38,400,1.25,1.25,2,r,r,0,400,0,400,L,S,=,0.310773485009792,0.387460718941995,1.35627764775597,1.522536662515,1.45233462198001,788745.123542397,788745.448138656,788745.448138656,788748.648036349,3.2,788750.028204222,788750.028204222,788753.228023639,3.2,788754.890227702,788755.566603116,0.676375413895585,77,Equals to,Ring,66,L,Index
205,Spatial,2314,1,3,39,400,1.66666666666667,1.25,2,r,r,0,400,0,400,S,=,L,0.376562460759951,0.282477286826869,1.21401983722417,1.96763963054622,1.38950586223637,788757.173618282,788757.568119832,788757.568119832,788759.967953429,2.4,788761.218363368,788761.218363368,788764.418232831,3.2,788766.540331472,788767.206606337,0.666274864925072,78,Equals to,Middle,77,L,Ring
205,Spatial,2314,1,3,40,800,1.25,3.33333333333333,1,r,r,0,400,0,800,S,=,L,0.444777643674226,0.370976461422653,1.00461567016757,1.67844787801103,1.90812718119066,788768.740365759,788769.198202255,788769.198202255,788772.398105723,3.2,788773.428641282,788773.428641282,788775.828142528,2.4,788777.657017909,788778.454634608,0.797616698895581,77,Longer,Ring,78,=,Middle
205,Spatial,2314,1,3,41,800,5,5,1,l,l,-1600,-1200,-1600,-800,=,L,S,0.348232187589064,0.448005842177631,1.6978820890038,1.68139373563083,1.598572266656,788780.507078332,788780.868580279,788780.868580279,788781.668413041,0.8,788783.408533422,788783.408533422,788785.008324417,1.6,788786.840444169,788789.070354412,2.22991024283692,78,Longer,Middle,78,L,Middle
205,Spatial,2314,1,3,42,800,1.25,3.33333333333333,1,r,r,0,400,0,800,=,L,S,0.337421527359459,0.35401710005467,1.01058446707696,1.37612926564652,1.88128014108705,788790.823793167,788791.178658686,788791.178658686,788794.378460459,3.2,788795.418875753,788795.418875753,788797.818670854,2.4,788799.340463154,788802.054647312,2.71418415755033,78,Longer,Middle,77,S,Ring
205,Spatial,2314,1,3,43,1600,6.66666666666667,5,2,m,m,-800,800,-800,800,L,S,=,0.220253958866559,0.483737882972047,1.40379503639829,1.69160607406969,1.69043881924901,788804.090505581,788804.328985791,788804.328985791,788806.728854035,2.4,788808.159001873,788808.159001873,788811.358855296,3.2,788813.190553091,788814.23855788,1.04800478892867,77,Equals to,Ring,66,L,Index
205,Spatial,2314,1,3,44,800,3.75,3.33333333333333,1,r,r,0,1200,0,800,S,=,L,0.44438683175859,0.317465858532206,1.19732757425369,1.97562011792366,1.76921771442155,788816.073922691,788816.52904777,788816.52904777,788819.728914666,3.2,788820.949003378,788820.949003378,788823.348847561,2.4,788825.457288923,788826.16656,0.709271077183075,66,Shorter,Index,78,=,Middle
205,Spatial,2314,1,3,45,400,2.5,5,2,l,l,-1600,-1200,-1600,-1200,L,S,=,0.463293481399773,0.384278830954716,1.09382966595494,1.24015256046654,1.64490421100801,788828.090642242,788828.569304874,788828.569304874,788830.169156179,1.6,788831.299417485,788831.299417485,788832.098872343,0.8,788833.474019115,788834.294547427,0.820528312120587,77,Equals to,Ring,78,S,Middle
205,Spatial,2314,1,3,46,800,2.5,3.33333333333333,1,m,m,-800,-400,-800,0,L,S,=,0.379013557447585,0.274290649233636,1.21158747828749,1.23811880579778,1.78204603697362,788836.090678814,788836.489303629,788836.489303629,788838.089242834,1.6,788839.329387115,788839.329387115,788841.729227448,2.4,788843.107403818,788843.694555896,0.587152078398503,66,Longer,Index,66,L,Index
205,Spatial,2314,1,3,47,800,1.25,3.33333333333333,1,l,l,-1600,-1200,-1600,-800,=,L,S,0.296932910604649,0.396310525678685,1.64397666561109,1.86330503626795,1.38929519515658,788845.624098827,788845.939421668,788845.939421668,788849.139197777,3.2,788850.819300302,788850.819300302,788853.219161167,2.4,788855.240795897,788856.574620917,1.33382501988672,78,Longer,Middle,77,S,Ring
205,Spatial,2314,1,3,48,800,2.5,3.33333333333333,1,l,l,-1600,-1200,-1600,-800,=,L,S,0.393464305014082,0.422705436493288,1.8111406239787,1.39938412494103,1.38959117868744,788858.107476319,788858.519600797,788858.519600797,788860.119424834,1.6,788861.96968419,788861.96968419,788864.369558529,2.4,788865.924147686,788866.422510794,0.498363108490594,78,Longer,Middle,78,L,Middle
205,Spatial,2314,1,3,49,1200,6.66666666666667,7.5,1,m,m,-800,800,-800,400,=,L,S,0.449536306908194,0.316723377567427,1.57250378018924,1.50725022094675,1.00809698981324,788874.507566593,788874.969871538,788874.969871538,788877.369703852,2.4,788878.979908466,788878.979908466,788880.579727691,1.6,788882.223772765,788883.766461706,1.54268894181587,77,Shorter,Ring,66,=,Index
205,Spatial,2314,1,3,50,400,2.5,1.25,2,m,m,-800,0,-800,-400,S,=,L,0.244241513137209,0.2138975363518,1.52791034180559,1.55940395926902,1.07246066983879,788884.940931718,788885.199964099,788885.199964099,788888.399905742,3.2,788889.95001647,788889.95001647,788893.149863797,3.2,788894.840961841,788895.518252182,0.677290340769105,66,Shorter,Index,77,L,Ring
205,Spatial,2314,1,3,51,800,15,5,1,m,m,-800,400,-800,0,L,S,=,0.345771976373261,0.234120307662777,1.95339162494573,1.48684302795452,1.00265710618086,788896.741005117,788897.099715125,788897.099715125,788897.899774694,0.8,788899.880115672,788899.880115672,788901.47988838,1.6,788903.107650835,788903.958683609,0.85103277338203,78,Shorter,Middle,77,=,Ring
205,Spatial,2314,1,3,52,1600,15,20,2,r,r,0,1200,0,1600,S,=,L,0.435412852716864,0.367217301675586,1.40958586030636,1.73276816737301,1.73719653439545,788905.107697672,788905.560312156,788905.560312156,788906.360134333,0.8,788907.800216763,788907.800216763,788908.600031881,0.8,788910.473930519,788910.862437921,0.388507402036339,77,Longer,Ring,78,=,Middle
205,Spatial,2314,1,3,53,1200,3.33333333333333,7.5,1,r,r,0,800,0,1200,=,L,S,0.459215393142623,0.486645165376499,1.13028992594449,1.87548592502123,1.79211010779419,788912.741071202,788913.220525573,788913.220525573,788915.619996984,2.4,788916.790582762,788916.790582762,788918.390074128,1.6,788920.407788884,788922.510454772,2.10266588826198,78,Longer,Middle,66,=,Index
205,Spatial,2314,1,3,54,800,3.75,3.33333333333333,1,r,r,0,1200,0,800,L,S,=,0.34025239718834,0.476320476395735,1.74994817862449,1.90207456084049,1.3943801836824,788924.441121472,788924.800426567,788924.800426567,788928.000435258,3.2,788929.770613809,788929.770613809,788932.170434895,2.4,788934.224469225,788936.022503287,1.79803406214342,78,Shorter,Middle,77,=,Ring
205,Spatial,2314,1,3,55,800,2.5,3.33333333333333,1,r,r,0,400,0,800,S,=,L,0.295107014765898,0.428724242566686,1.93245921148293,1.54749755593302,1.73691380078073,788937.557871852,788937.870493541,788937.870493541,788939.470401949,1.6,788941.440795502,788941.440795502,788943.840612417,2.4,788945.541256664,788946.310473635,0.769216970773414,77,Longer,Ring,77,L,Ring
205,Spatial,2314,1,3,56,1600,3.75,5,2,l,l,-1600,-400,-1600,0,=,L,S,0.262133112324863,0.469260849743091,1.37460879315396,1.14793931965161,1.90803949071081,788948.191278697,788948.470843407,788948.470843407,788951.670615988,3.2,788953.08094982,788953.08094982,788956.280752235,3.2,788957.574603272,788958.102472773,0.527869500336237,78,Longer,Middle,66,=,Index
205,Spatial,2314,1,3,57,1200,5,5,1,r,r,0,1600,0,1200,S,=,L,0.462746411971635,0.238509250178609,1.09036101839534,1.38875368446961,1.81866554041847,788960.157989779,788960.641131446,788960.641131446,788963.840933861,3.2,788964.961010991,788964.961010991,788967.360791014,2.4,788968.891362051,788969.310473956,0.419111904804595,66,Shorter,Index,78,=,Middle
205,Spatial,2314,1,3,58,400,5,5,2,r,r,0,400,0,400,L,S,=,0.334082033679634,0.290040465099685,1.96918630357446,1.68164948686466,1.47267079876479,788971.274695246,788971.621226653,788971.621226653,788972.420792188,0.8,788974.420981817,788974.420981817,788975.220841527,0.8,788977.058033055,NaN,NaN,77,Equals to,Ring,999,Missed,Missed
205,Spatial,2314,1,3,59,1200,3.33333333333333,7.5,1,l,l,-1600,-800,-1600,-400,=,L,S,0.395229836969808,0.394395628653655,1.29208633223338,1.88742106997512,1.78743978884872,788981.607787337,788982.021343233,788982.021343233,788984.421162714,2.4,788985.751358641,788985.751358641,788987.351096703,1.6,788989.39145108,788990.214419787,0.822968706837855,78,Longer,Middle,77,S,Ring
205,Spatial,2314,1,3,60,1600,10,20,2,m,m,-800,800,-800,800,=,L,S,0.360598895682763,0.206575716712571,1.10621227004084,1.01671311119226,1.76011522886057,788992.141483561,788992.521423594,788992.521423594,788994.121292543,1.6,788995.2614724,788995.2614724,788996.061285594,0.8,788997.224803822,788998.126459127,0.901655305409804,66,Equals to,Index,77,S,Ring
205,Spatial,2314,1,3,61,1200,5,5,1,m,m,-800,800,-800,400,S,=,L,0.459178365249566,0.418599213349494,1.19452295597078,1.82821905584911,1.20707935404831,789000.041502135,789000.511616039,789000.511616039,789003.711503146,3.2,789004.931511015,789004.931511015,789007.331557625,2.4,789009.308238438,789010.310541966,1.00230352766812,66,Shorter,Index,78,=,Middle
205,Spatial,2314,1,3,62,1600,20,20,2,r,r,0,1600,0,1600,L,S,=,0.25422452970541,0.238181676727956,1.23216722170287,1.80755562642333,1.85630453648282,789011.658256525,789011.931782093,789011.931782093,789012.731618384,0.8,789013.991907096,789013.991907096,789014.791632711,0.8,789016.741619453,789017.806432975,1.0648135227384,77,Equals to,Ring,77,=,Ring
205,Spatial,2314,1,3,63,1200,6.66666666666667,7.5,1,l,l,-1600,0,-1600,-400,L,S,=,0.321200445945531,0.409130254507294,1.71412384519303,1.77826330162917,1.76425758621707,789019.808344586,789020.141680819,789020.141680819,789022.541533022,2.4,789024.291919704,789024.291919704,789025.89172321,1.6,789027.825009894,789029.494572193,1.66956229903735,78,Shorter,Middle,77,=,Ring
205,Spatial,2314,1,3,64,1600,5,5,2,l,l,-1600,0,-1600,0,=,L,S,0.44379596258945,0.222841115677999,1.30276091565697,1.01709810114981,1.23530465806711,789031.424756728,789031.881926598,789031.881926598,789035.08180376,3.2,789036.412154954,789036.412154954,789039.611729279,3.2,789040.774589863,789041.486448528,0.711858664872125,66,Equals to,Index,78,L,Middle
205,Spatial,2314,1,3,65,1200,10,7.5,1,m,m,-800,0,-800,400,L,S,=,0.31393483893765,0.219646605637176,1.3808060575334,1.16992994310354,1.70693930580851,789042.87507591,789043.202030384,789043.202030384,789044.001887528,0.8,789045.422132854,789045.422132854,789047.02199218,1.6,789048.341776797,789049.966445089,1.62466829142068,66,Longer,Index,78,S,Middle
205,Spatial,2314,1,3,66,800,3.75,3.33333333333333,1,m,m,-800,400,-800,0,S,=,L,0.256462651591574,0.329727427029325,1.32704419101658,1.59299943733751,1.04149255285411,789051.808476483,789052.082414923,789052.082414923,789055.281920596,3.2,789056.632309716,789056.632309716,789059.032131764,2.4,789060.758486893,789061.286621055,0.528134161955677,66,Shorter,Index,78,=,Middle
205,Spatial,2314,1,3,67,1200,2.5,5,1,m,m,-800,0,-800,400,L,S,=,0.323451157210242,0.493624197913779,1.4552391436588,1.10547120773725,1.03107420775611,789062.475084665,789062.812238491,789062.812238491,789066.012096084,3.2,789067.492159086,789067.492159086,789069.892107851,2.4,789071.14186339,789073.05439837,1.9125349795213,66,Longer,Index,66,L,Index
205,Spatial,2314,1,3,68,1600,20,20,2,r,r,0,1600,0,1600,L,S,=,0.393450084796029,0.330606317829738,1.7989831731894,1.32557875438739,1.52995639446597,789074.225226783,789074.632474287,789074.632474287,789075.432271441,0.8,789077.252202189,789077.252202189,789078.052216526,0.8,789079.525220319,789080.07041761,0.545197291532531,77,Equals to,Ring,77,=,Ring
205,Spatial,2314,1,3,69,1600,5,5,2,r,r,0,1600,0,1600,S,=,L,0.475806670225576,0.474030803768889,1.46599113925695,1.61635822468327,1.80272115350403,789081.758588908,789082.252518821,789082.252518821,789085.452423251,3.2,789086.952390404,789086.952390404,789090.152476407,3.2,789091.92533466,789093.366272947,1.44093828683253,78,Equals to,Middle,78,=,Middle
205,Spatial,2314,1,3,70,1200,5,5,1,l,l,-1600,-800,-1600,-400,S,=,L,0.223015816998693,0.364296883185933,1.59200445440895,1.18962373127491,1.14728814007081,789095.308709546,789095.542545508,789095.542545508,789097.142513906,1.6,789098.763051227,789098.763051227,789101.162804944,2.4,789102.491993267,789103.174226523,0.682233255705796,77,Longer,Ring,77,L,Ring
205,Spatial,2314,1,3,71,800,5,5,1,m,m,-800,400,-800,0,S,=,L,0.276682214752486,0.36254164895489,1.58939674985139,1.80038323683535,1.9288359258646,789104.47539195,789104.772916525,789104.772916525,789107.172718683,2.4,789108.793119022,789108.793119022,789110.392967119,1.6,789112.342095674,789113.01440657,0.67231089505367,66,Shorter,Index,66,S,Index
205,Spatial,2314,1,3,72,800,3.75,3.33333333333333,1,m,m,-800,400,-800,0,S,=,L,0.222251746672217,0.262632454509082,1.63716077233018,1.65147349020576,1.69405870193888,789115.092095154,789115.333248286,789115.333248286,789118.532788285,3.2,789120.193260624,789120.193260624,789122.59308588,2.4,789124.392116423,789124.830409064,0.438292641192675,66,Shorter,Index,78,=,Middle
205,Spatial,2314,1,3,73,1200,5,5,1,m,m,-800,0,-800,400,S,=,L,0.211017027020381,0.211261546101739,1.54889609271458,1.73283116763373,1.43430028211374,789135.575536806,789135.803530004,789135.803530004,789137.403006292,1.6,789138.993326324,789138.993326324,789141.39335561,2.4,789143.275543126,789143.798364809,0.522821683203802,77,Longer,Ring,78,=,Middle
205,Spatial,2314,1,3,74,1200,10,5,1,l,l,-1600,0,-1600,-400,S,=,L,0.289363897145996,0.200613657360616,1.78206700658967,1.22840715154448,1.19862722558988,789145.375609884,789145.683715325,789145.683715325,789147.283184876,1.6,789149.093717413,789149.093717413,789151.493500644,2.4,789152.875581814,789153.55851121,0.682929395698011,66,Shorter,Index,77,L,Ring
205,Spatial,2314,1,3,75,1600,3.75,5,2,l,l,-1600,-400,-1600,0,=,L,S,0.47015351713756,0.305645716785498,1.07807461433857,1.69780378467554,1.53175211354856,789154.908967984,789155.393670993,789155.393670993,789158.593457689,3.2,789159.703824147,789159.703824147,789162.903374733,3.2,789164.758978041,NaN,NaN,78,Longer,Middle,999,Missed,Missed
205,Spatial,2314,1,3,76,800,15,5,1,r,r,0,1200,0,800,S,=,L,0.381346683940234,0.374548081891958,1.30803503607295,1.38538119172963,1.94860190921432,789169.359043998,789169.753893617,789169.753893617,789170.553764555,0.8,789171.903889655,789171.903889655,789173.503667176,1.6,789175.042365413,789175.622386066,0.580020653316751,66,Shorter,Index,78,=,Middle
205,Spatial,2314,1,3,77,1600,15,20,2,l,l,-1600,-400,-1600,0,L,S,=,0.432312872026124,0.316964993462329,1.05018383254234,1.94275951731201,1.7306452385241,789177.709102336,789178.153900803,789178.153900803,789178.953649516,0.8,789180.044049267,789180.044049267,789180.84359395,0.8,789182.925785434,789184.902295947,1.97651051264256,66,Longer,Index,66,L,Index
205,Spatial,2314,1,3,78,1600,6.66666666666667,5,2,r,r,0,1600,0,1600,S,=,L,0.401542014670537,0.317328193987171,1.87740755226382,1.69105236278526,1.21665654183688,789186.792478736,789187.213853215,789187.213853215,789189.613812246,2.4,789191.513844329,789191.513844329,789194.713930012,3.2,789196.542486195,789196.974488554,0.432002358487807,78,Equals to,Middle,77,L,Ring
205,Spatial,2314,1,3,79,400,5,5,2,m,m,-800,0,-800,-400,L,S,=,0.22385209622712,0.287652820414186,1.21554132338985,1.61634879612111,1.84849677373849,789198.342513078,789198.584196496,789198.584196496,789200.183948994,1.6,789201.424391941,789201.424391941,789202.224201606,0.8,789203.992564284,789204.502376981,0.509812696953304,78,Shorter,Middle,78,S,Middle
205,Spatial,2314,1,3,80,1600,7.5,20,2,m,m,-800,400,-800,800,S,=,L,0.228800830552567,0.258047646627467,1.73569881448683,1.6363531157957,1.2857077919564,789206.509224176,789206.754348835,789206.754348835,789208.354227729,1.6,789210.124019394,789210.124019394,789210.92402571,0.8,789212.709247979,789213.366461899,0.657213919446804,77,Longer,Ring,66,S,Index
205,Spatial,2314,1,3,81,800,1.66666666666667,5,1,l,l,-1600,-1200,-1600,-800,=,L,S,0.348943649897465,0.391900770811935,1.08107505891435,1.78928671310895,1.1814058340705,789214.792621493,789215.15441986,789215.15441986,789217.554183522,2.4,789218.67468347,789218.67468347,789220.27412896,1.6,789222.209326293,NaN,NaN,78,Longer,Middle,999,Missed,Missed
205,Spatial,2314,1,3,82,800,2.5,3.33333333333333,1,r,r,0,400,0,800,=,L,S,0.205465928895926,0.314891345227424,1.69434020524106,1.30815715674791,1.28732206725175,789226.476024236,789226.694595961,789226.694595961,789228.294427056,1.6,789230.014438294,789230.014438294,789232.414343109,2.4,789233.859343466,789234.366324275,0.506980808568187,78,Longer,Middle,78,L,Middle
205,Spatial,2314,1,3,83,400,1.25,1.25,2,l,l,-1600,-1200,-1600,-1200,S,=,L,0.298738806846799,0.375534717536385,1.2943422340973,1.33135450902638,1.83507994412882,789235.792745002,789236.104836726,789236.104836726,789239.30469849,3.2,789240.634674988,789240.634674988,789243.834473232,3.2,789245.30943851,789246.238455544,0.929017034242861,78,Equals to,Middle,77,L,Ring
205,Spatial,2314,1,3,84,800,15,5,1,m,m,-800,400,-800,0,=,L,S,0.315072360794698,0.302298351435353,1.69751944681443,1.3845468291523,1.3928453656124,789248.226116543,789248.554906324,789248.554906324,789249.354730425,0.8,789251.084759984,789251.084759984,789252.684578888,1.6,789254.209011388,789255.870319702,1.66130831337068,77,Shorter,Ring,66,=,Index
205,Spatial,2314,1,3,85,1200,10,7.5,1,r,r,0,800,0,1200,S,=,L,0.216108514963406,0.404723814585646,1.1295372626008,1.10581241485261,1.78115502635529,789257.409492334,789257.645067043,789257.645067043,789258.44490173,0.8,789259.605216075,789259.605216075,789261.204717064,1.6,789262.459488661,789264.134331605,1.6748429434374,77,Longer,Ring,78,=,Middle
205,Spatial,2314,1,3,86,1200,2.5,5,1,m,m,-800,0,-800,400,L,S,=,0.339933200161696,0.299231693554221,1.43700655915048,1.12250519845829,1.22081693664809,789266.076202309,789266.435141049,789266.435141049,789269.634972336,3.2,789271.095198235,789271.095198235,789273.49502702,2.4,789274.759560617,789275.294507327,0.534946709987707,66,Longer,Index,66,L,Index
205,Spatial,2314,1,3,87,800,1.66666666666667,5,1,l,l,-1600,-1200,-1600,-800,S,=,L,0.218412691875778,0.425652842268672,1.42096673412441,1.77804857328969,1.28854581881096,789276.659591061,789276.895480476,789276.895480476,789279.294949642,2.4,789280.745188659,789280.745188659,789282.345010129,1.6,789284.276313105,789285.71840976,1.44209665455855,77,Longer,Ring,78,=,Middle
205,Spatial,2314,1,3,88,1200,5,5,1,l,l,-1600,0,-1600,-400,L,S,=,0.469894882746941,0.345882588653635,1.16717497126454,1.76141092135324,1.16839868767017,789287.159653778,789287.645547283,789287.645547283,789290.845086961,3.2,789292.045417808,789292.045417808,789294.445234723,2.4,789296.359661862,789298.782145709,2.42248384677805,78,Shorter,Middle,77,=,Ring
205,Spatial,2314,1,3,89,400,2.5,5,2,l,l,-1600,-1200,-1600,-1200,L,S,=,0.390385461560718,0.470526185621106,1.14503776846631,1.14313128534706,1.09924402487711,789300.093039274,789300.49564139,789300.49564139,789302.095516756,1.6,789303.265638975,789303.265638975,789304.065542635,0.8,789305.359748213,789306.454226869,1.09447865642142,77,Equals to,Ring,78,S,Middle
205,Spatial,2314,1,3,90,800,5,5,1,l,l,-1600,-400,-1600,-800,=,L,S,0.356855654281851,0.441263776847665,1.7558514934864,1.29982832577627,1.76665910323084,789307.709741373,789308.085779813,789308.085779813,789310.48557748,2.4,789312.265795526,789312.265795526,789313.865702971,1.6,789315.309764342,789316.862295164,1.55253082187846,77,Shorter,Ring,66,=,Index
205,Spatial,2314,1,3,91,1200,10,7.5,1,m,m,-800,0,-800,400,L,S,=,0.433734876097367,0.298350916424954,1.8401167030969,1.14845070844443,1.81549471940787,789318.776465591,789319.225852167,789319.225852167,789320.025575215,0.8,789321.895980606,789321.895980606,789323.495777054,1.6,789324.793179661,789327.470456235,2.67727657337673,66,Longer,Index,66,L,Index
205,Spatial,2314,1,3,92,1200,6.66666666666667,7.5,1,m,m,-800,800,-800,400,=,L,S,0.483177228641697,0.396789447169847,1.05906424079483,1.97309241559377,1.02715582482696,789329.443188719,789329.946001635,789329.946001635,789332.345854801,2.4,789333.435923805,789333.435923805,789335.035724423,1.6,789337.143206267,789338.078261857,0.935055590118282,77,Shorter,Ring,78,L,Middle
205,Spatial,2314,1,3,93,400,10,5,2,r,r,0,800,0,400,=,L,S,0.25311345813361,0.360282726877108,1.67140763197384,1.25536380879109,1.55188608570042,789339.243238379,789339.51630135,789339.51630135,789340.315775777,0.8,789342.016282263,789342.016282263,789342.816034825,0.8,789344.209929844,789346.030234612,1.82030476815999,77,Shorter,Ring,77,S,Ring
205,Spatial,2314,1,3,94,1200,5,5,1,r,r,0,1600,0,1200,L,S,=,0.278116383437654,0.353651935555135,1.01119799966665,1.47030770662817,1.38078579657199,789347.72663544,789348.016186022,789348.016186022,789351.215990041,3.2,789352.256336042,789352.256336042,789354.656176696,2.4,789356.276633852,789357.390222409,1.11358855688013,78,Shorter,Middle,66,L,Index
205,Spatial,2314,1,3,95,800,1.66666666666667,5,1,m,m,-800,-400,-800,0,=,L,S,0.462367872447534,0.259538129259498,1.86906647394707,1.6525151650799,1.04957652773422,789358.926674963,789359.406401373,789359.406401373,789361.80623882,2.4,789363.706471404,789363.706471404,789365.306396815,1.6,789367.110075913,789369.342270231,2.23219431785401,78,Longer,Middle,77,S,Ring
205,Spatial,2314,1,3,96,1200,10,5,1,m,m,-800,800,-800,400,=,L,S,0.420362331485067,0.459848786757781,1.8207502559031,1.42749034966333,1.13433437780946,789370.54340818,789370.976532989,789370.976532989,789372.576337457,1.6,789374.426633063,789374.426633063,789376.826455432,2.4,789378.410085818,789380.406309018,1.99622319987975,77,Shorter,Ring,78,L,Middle
