Subject,Task,SequenceOrder,ListNo,RunNo,TrialNo,Aud_Probe_Dist,Aud_Standard_Vel,Aud_Probe_Vel,Main_Control,Aud_Std_StartCode,Aud_Probe_StartCode,Aud_Std_StartPt,Aud_Std_EndPt,Aud_Probe_StartPt,Aud_Probe_EndPt,RespIndex,RespMiddle,RespRing,ISI_Cross_Std,ISI_Cross_Probe,ISI_Std_Probe,ISI_Probe_Response,ITI,TrialOnset,StdOnset,StdOnsetByStop,StdOffset,StdDur,ProbeOnset,ProbeOnsetByStop,ProbeOffset,ProbeDur,RespWinStart,RespTime,RT,CorrectKC,CorrectResponse,CorrectFinger,SubjRespKC,SubjResponse,SubjRespFinger
202,Temporal,2314,1,3,1,1600,20,20,2,r,r,0,1600,0,1600,S,=,L,0.302523812975363,0.365933312811476,1.0018900424969,1.20552160441931,1.82653754829721,772255.920504018,772256.234116985,772256.234116985,772257.038922497,0.8,772258.069325245,772258.069325245,772258.869171481,0.8,772260.220539875,772260.726416974,0.505877099232748,78,Equals to,Middle,78,=,Middle
202,Temporal,2314,1,3,2,1200,6.66666666666667,7.5,1,l,l,-1600,0,-1600,-400,S,=,L,0.430195475728453,0.356705036185033,1.88970675497637,1.8689982476443,1.4177514358287,772262.703917215,772263.149319432,772263.149319432,772265.549144688,2.4,772267.479439293,772267.479439293,772269.079216493,1.6,772271.087264199,772271.494603953,0.40733975393232,66,Shorter,Index,77,L,Ring
202,Temporal,2314,1,3,3,1200,5,5,1,l,l,-1600,0,-1600,-400,=,L,S,0.377318484617724,0.209589892611919,1.82119274628594,1.784752095996,1.51865968466933,772273.070664628,772273.459355493,772273.459355493,772276.659393377,3.2,772278.509497464,772278.509497464,772280.909485366,2.4,772282.837304058,772283.35831289,0.52100883203093,77,Shorter,Ring,78,L,Middle
202,Temporal,2314,1,3,4,1200,20,7.5,1,l,l,-1600,0,-1600,-400,=,L,S,0.206082549949358,0.393092705904444,1.81119618456592,1.96494709213696,1.53067639860696,772285.037077636,772285.25961207,772285.25961207,772286.059409866,0.8,772287.899645447,772287.899645447,772289.499610636,1.6,772291.620696082,772292.054501989,0.433805906563066,78,Longer,Middle,78,L,Middle
202,Temporal,2314,1,3,5,800,3.75,3.33333333333333,1,m,m,-800,400,-800,0,=,L,S,0.475410477760457,0.340579698432549,1.4162770426192,1.90171859039904,1.81380162049313,772293.754092502,772294.249937328,772294.249937328,772297.449441077,3.2,772298.899876424,772298.899876424,772301.299733119,2.4,772303.354084722,772303.798308668,0.444223946542479,77,Shorter,Ring,66,=,Index
202,Temporal,2314,1,3,6,1200,3.33333333333333,7.5,1,m,m,-800,0,-800,400,L,S,=,0.305316353021877,0.3073701791175,1.88168613929577,1.95900500013655,1.72273487008481,772305.770796702,772306.089708032,772306.089708032,772308.489781909,2.4,772310.399961918,772310.399961918,772311.999759649,1.6,772314.10413998,772314.502452049,0.39831206900999,78,Shorter,Middle,78,S,Middle
202,Temporal,2314,1,3,7,1200,6.66666666666667,7.5,1,l,l,-1600,0,-1600,-400,=,L,S,0.486116693699401,0.253970149983562,1.37996294525172,1.35738521486112,1.5810092394703,772316.387531844,772316.890225742,772316.890225742,772319.289784732,2.4,772320.700303026,772320.700303026,772322.299815244,1.6,772323.804201799,772324.53449855,0.730296751251444,77,Shorter,Ring,66,=,Index
202,Temporal,2314,1,3,8,1600,10,20,2,r,r,0,1600,0,1600,S,=,L,0.226264782925473,0.469071694059074,1.08651892300755,1.10147778225644,1.66357574072934,772326.27091588,772326.510013313,772326.510013313,772328.110038814,1.6,772329.220428049,772329.220428049,772330.01988387,0.8,772331.270934486,772331.686707158,0.415772672044113,66,Shorter,Index,66,S,Index
202,Temporal,2314,1,3,9,400,3.33333333333333,1.25,2,r,r,0,800,0,400,L,S,=,0.237735104884815,0.249649406941038,1.19936088672565,1.18001817375195,1.75489818193556,772333.520680331,772333.770182973,772333.770182973,772336.170055386,2.4,772337.400440875,772337.400440875,772340.600241365,3.2,772341.937627779,772342.494396714,0.556768935057335,66,Longer,Index,77,=,Ring
202,Temporal,2314,1,3,10,800,5,5,1,m,m,-800,400,-800,0,=,L,S,0.222811550438858,0.354228533522309,1.56539166330108,1.47898059704924,1.7110400649965,772344.404340257,772344.640287416,772344.640287416,772347.040121655,2.4,772348.630432704,772348.630432704,772350.230265403,1.6,772351.85435596,772352.390530378,0.536174418637529,77,Shorter,Ring,66,=,Index
202,Temporal,2314,1,3,11,800,3.75,3.33333333333333,1,r,r,0,1200,0,800,L,S,=,0.30352812599052,0.359614871999939,1.13776434498123,1.04289218622629,1.83639455844999,772354.271019819,772354.590523991,772354.590523991,772357.790332502,3.2,772358.960536204,772358.960536204,772361.360352157,2.4,772362.537741536,772363.006496558,0.468755022622645,78,Shorter,Middle,66,L,Index
202,Temporal,2314,1,3,12,1600,3.75,5,2,l,l,-1600,-400,-1600,0,L,S,=,0.469806034962324,0.270658723228178,1.95030460381178,1.02960496913821,1.60145709057946,772365.004448559,772365.490693022,772365.490693022,772368.690502174,3.2,772370.670814279,772370.670814279,772373.870650057,3.2,772375.054472475,772375.470557608,0.416085133096203,77,Equals to,Ring,66,L,Index
202,Temporal,2314,1,3,13,1600,3.75,5,2,l,l,-1600,-400,-1600,0,=,L,S,0.271637241338516,0.315424708824871,1.40128508535917,1.30113798071212,1.92051724833833,772377.237880667,772377.520803484,772377.520803484,772380.720652094,3.2,772382.150914459,772382.150914459,772385.350914808,3.2,772386.804521959,772387.374440882,0.569918923778459,66,Equals to,Index,77,S,Ring
202,Temporal,2314,1,3,14,400,2.5,1.25,2,m,m,-800,0,-800,-400,S,=,L,0.368298398734692,0.286641848381003,1.52167332887484,1.51309584609529,1.82055440599279,772389.454592583,772389.841026928,772389.841026928,772393.04082806,3.2,772394.591108813,772394.591108813,772397.791009073,3.2,772399.454597395,772399.902492598,0.447895203018561,78,Equals to,Middle,77,L,Ring
202,Temporal,2314,1,3,15,400,1.66666666666667,1.25,2,m,m,-800,-400,-800,-400,=,L,S,0.391528880591049,0.345003222605269,1.6870637503386,1.47413659683888,1.61111090864418,772401.887966049,772402.291229659,772402.291229659,772404.691082825,2.4,772406.411332418,772406.411332418,772409.611144457,3.2,772411.221326009,772411.678640596,0.457314586965367,78,Longer,Middle,78,L,Middle
202,Temporal,2314,1,3,16,1200,10,7.5,1,m,m,-800,0,-800,400,L,S,=,0.472239445590419,0.235538131443455,1.82257829250895,1.20162032120054,1.55727977113321,772413.421419426,772413.911586654,772413.911586654,772414.711026114,0.8,772416.561487253,772416.561487253,772418.161277927,1.6,772419.504728459,772419.958524812,0.453796353074722,66,Longer,Index,66,L,Index
202,Temporal,2314,1,3,17,1200,5,5,1,m,m,-800,0,-800,400,=,L,S,0.364509486578782,0.227213544047158,1.30981291472584,1.68148771676882,1.68223113379383,772421.654738612,772422.031561092,772422.031561092,772423.631393149,1.6,772424.981382229,772424.981382229,772427.381364037,2.4,772429.22143059,772429.638441237,0.41701064654626,78,Longer,Middle,78,L,Middle
202,Temporal,2314,1,3,18,400,10,5,2,m,m,-800,0,-800,-400,S,=,L,0.463385715370334,0.369687903526048,1.97334057643699,1.57510121322542,1.00153448919953,772431.488130171,772431.971568259,772431.971568259,772432.771348731,0.8,772434.78168436,772434.78168436,772435.581542146,0.8,772437.304798009,772437.798520718,0.49372270971071,78,Equals to,Middle,66,S,Index
202,Temporal,2314,1,3,19,1600,6.66666666666667,5,2,r,r,0,1600,0,1600,S,=,L,0.436786136256617,0.472983963115798,1.0388509255887,1.31729224771364,1.97096969909571,772438.954844252,772439.411942584,772439.411942584,772441.811426506,2.4,772442.871800488,772442.871800488,772446.071682141,3.2,772447.538235207,772448.166582135,0.628346928046085,77,Longer,Ring,77,L,Ring
202,Temporal,2314,1,3,20,800,7.5,3.33333333333333,1,l,l,-1600,-400,-1600,-800,=,L,S,0.396416489114483,0.203866230228176,1.17294230483483,1.99771187296256,1.49040437123042,772450.288238538,772450.702063587,772450.702063587,772452.301836937,1.6,772453.511826165,772453.511826165,772455.911726488,2.4,772458.054898821,772458.454394007,0.399495186167769,78,Longer,Middle,78,L,Middle
202,Temporal,2314,1,3,21,400,5,5,2,m,m,-800,0,-800,-400,L,S,=,0.342490777699369,0.393293604570575,1.09072987122472,1.39198245598515,1.21327795230377,772460.104979839,772460.461765677,772460.461765677,772462.061744662,1.6,772463.182094153,772463.182094153,772463.981966374,0.8,772465.521648407,772465.918560921,0.396912514930591,78,Shorter,Middle,78,S,Middle
202,Temporal,2314,1,3,22,1600,15,20,2,l,l,-1600,-400,-1600,0,=,L,S,0.220789763491894,0.293617438242697,1.77625370626728,1.92181685582148,1.42368527243751,772467.271656932,772467.512117132,772467.512117132,772468.31189215,0.8,772470.112182126,772470.112182126,772470.91199917,0.8,772472.971656194,772473.686533925,0.71487773116678,66,Equals to,Index,66,=,Index
202,Temporal,2314,1,3,23,800,15,5,1,r,r,0,1200,0,800,=,L,S,0.267256886503502,0.277894643625013,1.63794507673493,1.22046151686191,1.63084158864839,772475.271693824,772475.552337664,772475.552337664,772476.352168502,0.8,772478.022176676,772478.022176676,772479.621952913,1.6,772480.988410909,772481.366138531,0.377727621467784,78,Longer,Middle,78,L,Middle
202,Temporal,2314,1,3,24,400,1.25,1.25,2,l,l,-1600,-1200,-1600,-1200,=,L,S,0.217439583276464,0.374289610445982,1.6581355214073,1.40117125442214,1.59520972603865,772483.155079143,772483.392538884,772483.392538884,772486.592026913,3.2,772488.282511227,772488.282511227,772491.482342514,3.2,772493.03841538,772493.462347647,0.423932267120108,66,Equals to,Index,78,L,Middle
202,Temporal,2314,1,3,25,1200,5,5,1,m,m,-800,0,-800,400,S,=,L,0.39957202332395,0.248109518275779,1.72518396340245,1.29850582827001,1.74134678903471,772495.771811398,772496.182519215,772496.182519215,772497.782347102,1.6,772499.54252626,772499.54252626,772501.942300829,2.4,772503.388497457,772503.814389503,0.425892045721412,77,Longer,Ring,77,L,Ring
202,Temporal,2314,1,3,26,1200,2.5,5,1,r,r,0,800,0,1200,=,L,S,0.328792593906209,0.269192966261007,1.50641436319299,1.27156793881068,1.7890419756472,772505.705220954,772506.0525842,772506.0525842,772509.252438264,3.2,772510.792762932,772510.792762932,772513.192610965,2.4,772514.605202315,772515.0143469,0.409144585137255,77,Shorter,Ring,66,=,Index
202,Temporal,2314,1,3,27,1600,7.5,20,2,r,r,0,1200,0,1600,L,S,=,0.446661711749007,0.371329462038489,1.44484796121118,1.07277839774731,1.75179787922045,772516.955216382,772517.412888307,772517.412888307,772519.01274667,1.6,772520.482971321,772520.482971321,772521.282496435,0.8,772522.505244629,772522.894402617,0.389157988131046,78,Shorter,Middle,78,S,Middle
202,Temporal,2314,1,3,28,800,1.25,3.33333333333333,1,r,r,0,400,0,800,L,S,=,0.446771225728028,0.275373955612026,1.76048874907964,1.8136808598834,1.44434565522813,772524.805287713,772525.262697543,772525.262697543,772528.46262507,3.2,772530.242733081,772530.242733081,772532.642765896,2.4,772534.605319729,772535.054515142,0.449195412918925,78,Shorter,Middle,78,S,Middle
202,Temporal,2314,1,3,29,800,15,5,1,m,m,-800,400,-800,0,S,=,L,0.439608708030808,0.326189486194772,1.14358638142498,1.69004150741589,1.84024418469415,772536.638696595,772537.093282406,772537.093282406,772537.892709355,0.8,772539.06302598,772539.06302598,772540.662833014,1.6,772542.4887414,772542.966273781,0.477532380959019,77,Longer,Ring,77,L,Ring
202,Temporal,2314,1,3,30,800,1.66666666666667,5,1,l,l,-1600,-1200,-1600,-800,L,S,=,0.217230858010807,0.439879111352333,1.67458544367829,1.84037555125506,1.51063846979302,772544.95541143,772545.182894553,772545.182894553,772547.582927689,2.4,772549.293258089,772549.293258089,772550.893042026,1.6,772552.872094698,772553.358330214,0.486235515447333,78,Shorter,Middle,77,=,Ring
202,Temporal,2314,1,3,31,1200,10,5,1,m,m,-800,800,-800,400,=,L,S,0.372510070174108,0.300601120920162,1.22663248935371,1.87567809574504,1.77724599967403,772555.021856551,772555.413497189,772555.413497189,772557.012989196,1.6,772558.26334075,772558.26334075,772560.663124623,2.4,772562.672179522,772563.542333814,0.870154291740619,78,Longer,Middle,78,L,Middle
202,Temporal,2314,1,3,32,1200,20,7.5,1,r,r,0,1600,0,1200,=,L,S,0.203910499674539,0.498836184797231,1.25087049849251,1.18408084715851,1.503739035228,772565.472193698,772565.693441395,772565.693441395,772566.49321481,0.8,772567.773508084,772567.773508084,772569.373340141,1.6,772570.7055116,772571.238346151,0.532834550598636,78,Longer,Middle,78,L,Middle
202,Temporal,2314,1,3,33,1600,10,20,2,m,m,-800,800,-800,800,L,S,=,0.206763250709135,0.250321959879503,1.23102090656482,1.2450484202142,1.04766457896535,772572.905552727,772573.123568026,772573.123568026,772574.723409065,1.6,772575.983598008,772575.983598008,772576.78340639,0.8,772578.188930945,772578.582310216,0.393379270797595,78,Shorter,Middle,78,S,Middle
202,Temporal,2314,1,3,34,800,5,5,1,r,r,0,400,0,800,S,=,L,0.418709048710187,0.299922136555135,1.43491583030011,1.72691698926654,1.50254887089555,772579.805588304,772580.243765742,772580.243765742,772581.043316841,0.8,772582.503817667,772582.503817667,772584.103361965,1.6,772585.988912126,772586.398137874,0.409225748036988,77,Longer,Ring,77,L,Ring
202,Temporal,2314,1,3,35,1200,5,5,1,l,l,-1600,-800,-1600,-400,L,S,=,0.442806552915459,0.495706002581125,1.16347137776911,1.09472913344665,1.41237183317488,772588.055644043,772588.51397265,772588.51397265,772590.113504115,1.6,772591.303950415,772591.303950415,772593.703760914,2.4,772594.955673128,772595.390348805,0.434675676515326,66,Longer,Index,66,L,Index
202,Temporal,2314,1,3,36,1200,5,5,1,m,m,-800,0,-800,400,=,L,S,0.211592657489543,0.209952050196447,1.92222329562589,1.66618170007961,1.75075040241439,772596.95567962,772597.183906362,772597.183906362,772598.783668806,1.6,772600.743859256,772600.743859256,772603.143773053,2.4,772604.955698227,772605.390369657,0.434671429917216,78,Longer,Middle,78,L,Middle
202,Temporal,2314,1,3,37,1200,3.33333333333333,7.5,1,r,r,0,800,0,1200,=,L,S,0.488439642568283,0.429969792450036,1.65612474365458,1.54187477274547,1.91937144554028,772607.289059791,772607.794049347,772607.794049347,772610.19390123,2.4,772611.874298892,772611.874298892,772613.473757857,1.6,772615.155727805,772615.614362491,0.458634686539881,77,Shorter,Ring,77,S,Ring
202,Temporal,2314,1,3,38,800,1.25,3.33333333333333,1,r,r,0,400,0,800,=,L,S,0.448884977392806,0.210277578988295,1.75100406690134,1.70884744758079,1.21970354881564,772617.689117984,772618.154163219,772618.154163219,772621.353998676,3.2,772623.134096101,772623.134096101,772625.534011823,2.4,772627.389179482,772628.094495393,0.705315911211073,77,Shorter,Ring,66,=,Index
202,Temporal,2314,1,3,39,800,5,5,1,l,l,-1600,-400,-1600,-800,S,=,L,0.351906866210233,0.234660021778865,1.73105554536964,1.22027252633166,1.12906709815857,772629.472507442,772629.844090586,772629.844090586,772632.244091962,2.4,772634.004478679,772634.004478679,772635.604272561,1.6,772636.972559577,772637.486240327,0.513680750038475,66,Shorter,Index,66,S,Index
202,Temporal,2314,1,3,40,800,1.66666666666667,5,1,l,l,-1600,-1200,-1600,-800,L,S,=,0.42279554282505,0.47133709681194,1.87135771791129,1.04181830226609,1.09475765661322,772638.772579077,772639.214296884,772639.214296884,772641.614332265,2.4,772643.504404093,772643.504404093,772645.104331749,1.6,772646.289245535,772646.790305625,0.501060089678504,78,Shorter,Middle,78,S,Middle
202,Temporal,2314,1,3,41,800,5,5,1,m,m,-800,400,-800,0,L,S,=,0.470181804862313,0.310592394122223,1.6068482582854,1.55618308835958,1.9711794054306,772648.039315263,772648.524494309,772648.524494309,772650.924316998,2.4,772652.564819743,772652.564819743,772654.164608813,1.6,772655.856005208,772656.30228196,0.446276752278209,78,Shorter,Middle,77,=,Ring
202,Temporal,2314,1,3,42,800,2.5,3.33333333333333,1,r,r,0,400,0,800,=,L,S,0.224705609464834,0.390719995522067,1.36733508272555,1.97335106032789,1.43654650261798,772658.439354816,772658.674762708,772658.674762708,772660.274639677,1.6,772661.674768482,772661.674768482,772664.074525407,2.4,772666.189356821,772666.646233834,0.456877013319172,78,Longer,Middle,78,L,Middle
202,Temporal,2314,1,3,43,800,5,5,1,m,m,-800,-400,-800,0,=,L,S,0.413076263837825,0.231687938855817,1.53834301040089,1.23538211024118,1.46411997741944,772668.23939389,772668.665050111,772668.665050111,772669.46456528,0.8,772671.025057156,772671.025057156,772672.624777253,1.6,772674.006100244,772674.40632217,0.400221926392987,78,Longer,Middle,78,L,Middle
202,Temporal,2314,1,3,44,800,3.75,3.33333333333333,1,r,r,0,1200,0,800,S,=,L,0.268515935172729,0.2902093645298,1.55161599655097,1.03972383973438,1.57251913684996,772676.039416923,772676.325164721,772676.325164721,772679.524695737,3.2,772681.105109729,772681.105109729,772683.5049491,2.4,772684.689467658,772685.246274127,0.556806468986906,66,Shorter,Index,78,=,Middle
202,Temporal,2314,1,3,45,1600,6.66666666666667,5,2,m,m,-800,800,-800,800,S,=,L,0.426343482681764,0.410206359797686,1.97755338206188,1.27783856533482,1.72073494415058,772686.972824234,772687.41530587,772687.41530587,772689.814827327,2.4,772691.815161638,772691.815161638,772695.014980734,3.2,772696.439505593,772696.830180974,0.390675380942412,77,Longer,Ring,77,L,Ring
202,Temporal,2314,1,3,46,400,5,5,2,m,m,-800,0,-800,-400,L,S,=,0.421173255229472,0.214226940831949,1.49044615793848,1.00585809133412,1.70682485776725,772698.706214477,772699.14533411,772699.14533411,772700.745035601,1.6,772702.265554283,772702.265554283,772703.064996951,0.8,772704.206261154,772704.622498026,0.416236872319132,78,Shorter,Middle,78,S,Middle
202,Temporal,2314,1,3,47,800,5,5,1,l,l,-1600,-1200,-1600,-800,S,=,L,0.388471372107584,0.260077035223957,1.58625106604498,1.40705041234551,1.86020370518056,772706.489611634,772706.895416957,772706.895416957,772707.695176257,0.8,772709.305477432,772709.305477432,772710.905347023,1.6,772712.456292886,772712.814096611,0.357803724473342,77,Longer,Ring,77,L,Ring
202,Temporal,2314,1,3,48,1200,5,5,1,r,r,0,1600,0,1200,L,S,=,0.381460137367968,0.424737948263617,1.67988679305072,1.89764890736332,1.30026407626506,772714.839635325,772715.235609676,772715.235609676,772718.43538386,3.2,772720.155669704,772720.155669704,772722.555482449,2.4,772724.606360731,772725.022251779,0.415891047916375,78,Shorter,Middle,77,=,Ring
202,Temporal,2314,1,3,49,800,2.5,3.33333333333333,1,m,m,-800,-400,-800,0,=,L,S,0.297638745713344,0.391400607121492,1.5418915736192,1.1037170345515,1.88586428249779,772728.623027029,772728.935903755,772728.935903755,772730.535362078,1.6,772732.115641653,772732.115641653,772734.515529145,2.4,772735.756334634,772736.190291638,0.433957004221156,78,Longer,Middle,78,L,Middle
202,Temporal,2314,1,3,50,1600,20,20,2,r,r,0,1600,0,1600,=,L,S,0.225895044060253,0.211116795397862,1.71422680148477,1.45112929279387,1.54717351717917,772738.239760246,772738.485718347,772738.485718347,772739.285727231,0.8,772741.035738895,772741.035738895,772741.835539257,0.8,772743.439753894,772744.246117576,0.806363682146184,66,Equals to,Index,66,=,Index
202,Temporal,2314,1,3,51,400,1.25,1.25,2,r,r,0,400,0,400,L,S,=,0.401193523444675,0.395764672302199,1.43796283243132,1.0712127078549,1.09121472667224,772745.956480021,772746.376024325,772746.376024325,772749.57583059,3.2,772751.046063261,772751.046063261,772754.245916042,3.2,772755.45652585,772755.91838416,0.461858309106901,77,Equals to,Ring,66,L,Index
202,Temporal,2314,1,3,52,800,3.75,3.33333333333333,1,m,m,-800,400,-800,0,S,=,L,0.440098981515621,0.439750714465263,1.58160971170476,1.56533233707527,1.34658383032104,772757.156545433,772757.616013623,772757.616013623,772760.815834324,3.2,772762.416279825,772762.416279825,772764.81583272,2.4,772766.539870056,772766.998230136,0.458360080257989,66,Shorter,Index,78,=,Middle
202,Temporal,2314,1,3,53,400,3.33333333333333,1.25,2,l,l,-1600,-800,-1600,-1200,S,=,L,0.383206596538143,0.391416190809608,1.11978827509482,1.37818715185563,1.70000466164586,772768.506582052,772768.906211298,772768.906211298,772771.306086599,2.4,772772.456285099,772772.456285099,772775.656072436,3.2,772777.189929132,772777.670188429,0.48025929776486,77,Longer,Ring,77,L,Ring
202,Temporal,2314,1,3,54,400,2.5,5,2,l,l,-1600,-1200,-1600,-1200,=,L,S,0.315675976443609,0.357269910592424,1.06865283945971,1.87533957831662,1.7944429376336,772779.539989988,772779.866318946,772779.866318946,772781.46625751,1.6,772782.576443998,772782.576443998,772783.376244681,0.8,772785.389964484,772785.782374761,0.39241027738899,77,Shorter,Ring,77,S,Ring
202,Temporal,2314,1,3,55,1200,3.33333333333333,7.5,1,l,l,-1600,-800,-1600,-400,S,=,L,0.38599772491591,0.348939594025263,1.70348837339698,1.68728163478759,1.18687519803956,772787.723349013,772788.126519082,772788.126519082,772790.526388288,2.4,772792.256776824,772792.256776824,772793.856207878,1.6,772795.690062287,772796.606247167,0.916184880188666,66,Shorter,Index,77,L,Ring
202,Temporal,2314,1,3,56,400,1.66666666666667,1.25,2,r,r,0,400,0,400,S,=,L,0.491420961870284,0.377745966974364,1.04371491122859,1.49125550931201,1.37947504184377,772797.956763289,772798.466689986,772798.466689986,772800.866428625,2.4,772801.946921695,772801.946921695,772805.146373152,3.2,772806.773422786,772807.174271756,0.400848970049992,77,Longer,Ring,77,L,Ring
202,Temporal,2314,1,3,57,800,7.5,3.33333333333333,1,r,r,0,1200,0,800,L,S,=,0.303018497552349,0.244275492508218,1.53932076578364,1.90483456123556,1.4519425605522,772808.723450198,772809.046727962,772809.046727962,772810.646564831,1.6,772812.206806161,772812.206806161,772814.606745622,2.4,772816.656855508,772817.173979826,0.517124318517745,66,Longer,Index,66,L,Index
202,Temporal,2314,1,3,58,1600,15,20,2,r,r,0,1200,0,1600,L,S,=,0.259111266951456,0.224760180827806,1.39749179229517,1.61871097027917,1.92422984828471,772818.790198477,772819.066697877,772819.066697877,772819.866625918,0.8,772821.307170624,772821.307170624,772822.106614575,0.8,772823.87351553,772824.302199834,0.428684304933995,77,Equals to,Ring,77,=,Ring
202,Temporal,2314,1,3,59,400,2.5,5,2,l,l,-1600,-1200,-1600,-1200,S,=,L,0.357212985970798,0.306429815786167,1.35424379914841,1.41649495375126,1.34353470388143,772826.373572793,772826.747147796,772826.747147796,772828.346970229,1.6,772829.727378382,772829.727378382,772830.52672128,0.8,772832.090260541,772832.58205165,0.491791108623147,66,Shorter,Index,66,S,Index
202,Temporal,2314,1,3,60,800,15,5,1,m,m,-800,400,-800,0,=,L,S,0.391784719925668,0.452642896850189,1.40644194040614,1.61706682452288,1.1735141619726,772834.073606381,772834.477180206,772834.477180206,772835.277023555,0.8,772836.707052376,772836.707052376,772838.307001847,1.6,772840.073620496,772840.574328345,0.500707849278115,78,Longer,Middle,78,L,Middle
202,Temporal,2314,1,3,61,1200,5,5,1,r,r,0,1600,0,1200,L,S,=,0.464635362270149,0.323253154528523,1.37243073146072,1.42766367540062,1.91919127356021,772841.89030277,772842.367370054,772842.367370054,772845.566935075,3.2,772846.97725768,772846.97725768,772849.377071387,2.4,772850.957024202,772851.390219842,0.433195640332997,78,Shorter,Middle,77,=,Ring
202,Temporal,2314,1,3,62,400,10,5,2,r,r,0,800,0,400,L,S,=,0.2836271845068,0.359103222460523,1.33782118358194,1.24417738392381,1.78772570176021,772853.457020412,772853.757497826,772853.757497826,772854.55730332,0.8,772855.927542696,772855.927542696,772856.727315469,0.8,772858.123681304,772858.606153814,0.482472509611398,77,Equals to,Ring,66,L,Index
202,Temporal,2314,1,3,63,1200,2.5,5,1,r,r,0,800,0,1200,S,=,L,0.323961210680862,0.470495706774101,1.35837814916437,1.59732695291664,1.93314196032664,772860.540449697,772860.877620796,772860.877620796,772864.077469406,3.2,772865.467581815,772865.467581815,772867.867523522,2.4,772869.623798878,772870.038230598,0.414431720273569,66,Shorter,Index,77,L,Ring
202,Temporal,2314,1,3,64,800,1.66666666666667,5,1,r,r,0,400,0,800,=,L,S,0.44093799835676,0.40024136817279,1.44719475244046,1.53959185877708,1.83182280578664,772872.12379583,772872.577643155,772872.577643155,772874.977541554,2.4,772876.457784526,772876.457784526,772878.057542799,1.6,772879.74047002,772880.13412982,0.393659800523892,77,Shorter,Ring,77,S,Ring
202,Temporal,2314,1,3,65,1200,6.66666666666667,7.5,1,m,m,-800,800,-800,400,=,L,S,0.24925236570796,0.295922434559166,1.53497316554581,1.2648803980231,1.42344702088059,772882.123853575,772882.387793583,772882.387793583,772884.787566869,2.4,772886.357880735,772886.357880735,772887.957723378,1.6,772889.373894064,772889.806223813,0.432329748291522,77,Shorter,Ring,77,S,Ring
202,Temporal,2314,1,3,66,800,7.5,3.33333333333333,1,m,m,-800,400,-800,0,L,S,=,0.388716199158803,0.471021174980552,1.48506720247895,1.45821498059474,1.03955348654775,772891.390564063,772891.797886458,772891.797886458,772893.397692851,1.6,772894.907895829,772894.907895829,772897.307726859,2.4,772898.90723822,772899.49417504,0.586936820298433,66,Longer,Index,66,L,Index
202,Temporal,2314,1,3,67,1200,10,5,1,l,l,-1600,0,-1600,-400,=,L,S,0.243546728059377,0.422683001840892,1.3125942007532,1.24076763322425,1.15745502487432,772900.673970362,772900.928167298,772900.928167298,772902.52794963,1.6,772903.868040048,772903.868040048,772906.268120983,2.4,772907.65733299,772908.158275292,0.500942302169278,78,Longer,Middle,78,L,Middle
202,Temporal,2314,1,3,68,800,1.66666666666667,5,1,m,m,-800,-400,-800,0,=,L,S,0.316302332883839,0.363500056445865,1.44679957624931,1.16583690287823,1.76101677614051,772909.457353083,772909.788198242,772909.788198242,772912.18782428,2.4,772913.668244014,772913.668244014,772915.268074146,1.6,772916.590657159,772917.254103938,0.66344677854795,77,Shorter,Ring,77,S,Ring
202,Temporal,2314,1,3,69,800,7.5,3.33333333333333,1,l,l,-1600,-400,-1600,-800,L,S,=,0.222144723215991,0.446255725836124,1.50333037289332,1.17550952564011,1.48590462705872,772919.157392029,772919.398293748,772919.398293748,772920.998123239,1.6,772922.528154016,772922.528154016,772924.928239122,2.4,772926.240755474,772926.742005056,0.501249582506716,66,Longer,Index,66,L,Index
202,Temporal,2314,1,3,70,1600,5,5,2,l,l,-1600,-400,-1600,0,L,S,=,0.488188276594437,0.313223124221609,1.07435204416333,1.37266859246324,1.72156469053488,772928.374106286,772928.878537647,772928.878537647,772931.278387605,2.4,772932.378443171,772932.378443171,772935.578228584,3.2,772937.090727255,772937.550188968,0.45946171367541,66,Longer,Index,77,=,Ring
202,Temporal,2314,1,3,71,800,2.5,3.33333333333333,1,l,l,-1600,-1200,-1600,-800,L,S,=,0.302557341026965,0.474586031535291,1.51019595263306,1.21720685699056,1.95421970507241,772939.424165811,772939.738698517,772939.738698517,772941.33849304,1.6,772942.878707031,772942.878707031,772945.278560196,2.4,772946.640870627,772947.094189669,0.453319042455405,66,Longer,Index,66,L,Index
202,Temporal,2314,1,3,72,800,5,5,1,m,m,-800,400,-800,0,L,S,=,0.484023536356804,0.238649130310344,1.92686046298104,1.50210847441278,1.34904989968493,772949.19088865,772949.688844305,772949.688844305,772952.088687526,2.4,772954.048769545,772954.048769545,772955.64856086,1.6,772957.290437956,772957.758188547,0.467750591924414,78,Shorter,Middle,77,=,Ring
202,Temporal,2314,1,3,73,1200,10,7.5,1,m,m,-800,0,-800,400,S,=,L,0.475141282355734,0.274956899902187,1.35394325348828,1.20693875761452,1.27661042161463,772960.407597679,772960.898589046,772960.898589046,772961.698522541,0.8,772963.078888348,772963.078888348,772964.678644375,1.6,772966.024255186,772966.438191589,0.413936402299441,77,Longer,Ring,77,L,Ring
202,Temporal,2314,1,3,74,1600,7.5,20,2,m,m,-800,400,-800,800,L,S,=,0.390473828015778,0.407382886170121,1.01326449816346,1.09682571331858,1.36098412696826,772967.857658615,772968.258970467,772968.258970467,772969.858826263,1.6,772970.898936154,772970.898936154,772971.698764105,0.8,772972.940975347,772973.350184734,0.409209387027659,78,Shorter,Middle,78,S,Middle
202,Temporal,2314,1,3,75,1200,6.66666666666667,7.5,1,m,m,-800,800,-800,400,S,=,L,0.47772102221658,0.409922695845218,1.92578081970283,1.5470972498559,1.70857019205404,772974.857683958,772975.349251165,772975.349251165,772977.749037925,2.4,772979.699105794,772979.699105794,772981.298955495,1.6,772982.991053627,772983.374198356,0.383144729421474,66,Shorter,Index,78,=,Middle
202,Temporal,2314,1,3,76,800,15,5,1,r,r,0,1200,0,800,S,=,L,0.317024497265509,0.309986198146146,1.81705311458035,1.38935745517228,1.18968448180341,772985.224400253,772985.559183254,772985.559183254,772986.358984258,0.8,772988.209430962,772988.209430962,772989.809206237,1.6,772991.341049901,772991.734202514,0.393152612727135,77,Longer,Ring,77,L,Ring
202,Temporal,2314,1,3,77,1200,20,7.5,1,l,l,-1600,0,-1600,-400,L,S,=,0.34067155203321,0.448763767542662,1.98062363423029,1.59678627221068,1.51810264428487,772993.074428917,772993.429399016,772993.429399016,772994.229246536,0.8,772996.239366907,772996.239366907,772997.839240989,1.6,772999.59113832,773000.054139483,0.463001162977889,66,Longer,Index,66,L,Index
202,Temporal,2314,1,3,78,1600,5,5,2,l,l,-1600,0,-1600,0,S,=,L,0.268282409253981,0.335386364347062,1.24361753632252,1.01485245438336,1.63985917352355,773001.724530932,773002.009556973,773002.009556973,773005.209094726,3.2,773006.479413629,773006.479413629,773009.679281167,3.2,773010.841160096,773011.22215079,0.380990693927743,78,Equals to,Middle,77,L,Ring
202,Temporal,2314,1,3,79,1600,5,5,2,l,l,-1600,-400,-1600,0,S,=,L,0.302497373013033,0.264314226129009,1.35765942145916,1.52316026528706,1.22178705284986,773013.007794523,773013.329663966,773013.329663966,773015.729465483,2.4,773017.109677947,773017.109677947,773020.309601625,3.2,773021.974594294,773022.358161151,0.383566856733523,77,Longer,Ring,77,L,Ring
202,Temporal,2314,1,3,80,400,2.5,1.25,2,l,l,-1600,-800,-1600,-1200,S,=,L,0.417804544501589,0.369955407647973,1.74765058157203,1.40655576741539,1.17720601621915,773023.724594498,773024.159803236,773024.159803236,773027.359613992,3.2,773029.139722644,773029.139722644,773032.33956933,3.2,773033.891301747,773034.342171103,0.450869356864132,78,Equals to,Middle,77,L,Ring
202,Temporal,2314,1,3,81,1200,5,5,1,m,m,-800,800,-800,400,L,S,=,0.255698826361098,0.390311338408342,1.68981499052622,1.1115618750587,1.37095031678941,773035.674638272,773035.950062665,773035.950062665,773039.149620629,3.2,773040.859972844,773040.859972844,773043.259803233,2.4,773044.52471758,773044.902130092,0.377412512549199,78,Shorter,Middle,78,S,Middle
202,Temporal,2314,1,3,82,800,5,5,1,l,l,-1600,-1200,-1600,-800,=,L,S,0.351412678973211,0.371462620145975,1.37439919295296,1.18544355537337,1.94047334694235,773046.424709249,773046.790071083,773046.790071083,773047.589838402,0.8,773048.999967885,773048.999967885,773050.599722949,1.6,773051.924684387,773052.358137412,0.433453024481423,78,Longer,Middle,78,L,Middle
202,Temporal,2314,1,3,83,400,5,5,2,r,r,0,400,0,400,S,=,L,0.202791024463218,0.304033055937965,1.40026355857646,1.61437396058846,1.6128112989896,773054.441443878,773054.660267918,773054.660267918,773055.460061863,0.8,773056.890204248,773056.890204248,773057.690059467,0.8,773059.458081945,773060.046100509,0.588018564158119,78,Equals to,Middle,66,S,Index
202,Temporal,2314,1,3,84,1600,5,5,2,r,r,0,1600,0,1600,S,=,L,0.489595025119266,0.246452777002372,1.94024995497458,1.94690306048576,1.50887433444811,773061.808126488,773062.310207013,773062.310207013,773065.510043113,3.2,773067.480225899,773067.480225899,773070.680145727,3.2,773072.774842976,773073.246139711,0.47129673557356,78,Equals to,Middle,77,L,Ring
202,Temporal,2314,1,3,85,1200,10,5,1,l,l,-1600,0,-1600,-400,S,=,L,0.305992859533023,0.295815507245032,1.72096946921032,1.1872816631401,1.58568248995416,773074.891559992,773075.210420635,773075.210420635,773076.810276432,1.6,773078.560377921,773078.560377921,773080.96024456,2.4,773082.291574514,773082.701882369,0.410307854996063,77,Longer,Ring,77,L,Ring
202,Temporal,2314,1,3,86,800,1.25,3.33333333333333,1,l,l,-1600,-1200,-1600,-800,L,S,=,0.428249668605945,0.416605652163626,1.80510315406046,1.43047711219049,1.29567028724764,773084.441578294,773084.880520524,773084.880520524,773088.080473715,3.2,773089.910647025,773089.910647025,773092.310530667,2.4,773093.891596243,773094.342207996,0.450611753039993,78,Shorter,Middle,77,=,Ring
202,Temporal,2314,1,3,87,400,5,5,2,r,r,0,400,0,400,L,S,=,0.31369770271227,0.434636438018887,1.31644496058563,1.33787887877195,1.95233114446804,773095.775002735,773096.100784999,773096.100784999,773096.900550393,0.8,773098.240902586,773098.240902586,773099.040436682,0.8,773100.525001312,773100.974007992,0.449006680282764,77,Equals to,Ring,66,L,Index
202,Temporal,2314,1,3,88,1200,10,7.5,1,m,m,-800,0,-800,400,L,S,=,0.374632002986026,0.313026122294694,1.96786921383376,1.34948931327723,1.96812176842831,773103.074997057,773103.460872565,773103.460872565,773104.260703082,0.8,773106.260713704,773106.260713704,773107.860599335,1.6,773109.35833663,773109.85410798,0.49577135045547,66,Longer,Index,66,L,Index
202,Temporal,2314,1,3,89,800,2.5,3.33333333333333,1,r,r,0,400,0,800,L,S,=,0.33333695482858,0.382720275300587,1.0648855084319,1.43741778529655,1.16484591074299,773111.975046749,773112.320920833,773112.320920833,773113.920682955,1.6,773115.021184436,773115.021184436,773117.42072097,2.4,773119.008438937,773119.510071735,0.501632797298953,66,Longer,Index,66,L,Index
202,Temporal,2314,1,3,90,800,1.25,3.33333333333333,1,r,r,0,400,0,800,S,=,L,0.439410909634478,0.289903084186925,1.23324368771064,1.81497358566019,1.00850360304859,773120.825119362,773121.281298275,773121.281298275,773124.480725673,3.2,773125.74094413,773125.74094413,773128.140814619,2.4,773130.108501923,773130.63804633,0.52954440691974,66,Shorter,Index,66,S,Index
202,Temporal,2314,1,3,91,1200,2.5,5,1,m,m,-800,0,-800,400,=,L,S,0.261739872074433,0.42254933800067,1.68706586650342,1.22423502527996,1.52005524363021,773131.808496373,773132.081182081,773132.081182081,773135.281058601,3.2,773136.991350826,773136.991350826,773139.391198859,2.4,773140.758512237,773141.230087749,0.471575512434356,77,Shorter,Ring,66,=,Index
202,Temporal,2314,1,3,92,1200,20,7.5,1,l,l,-1600,0,-1600,-400,S,=,L,0.393079982984364,0.281007285494674,1.53277737554345,1.77379826873846,1.59617093630878,773142.891901325,773143.301273965,773143.301273965,773144.101057645,0.8,773145.661313411,773145.661313411,773147.26115028,1.6,773149.175221329,773149.598062229,0.422840899322182,77,Longer,Ring,77,L,Ring
202,Temporal,2314,1,3,93,1200,3.33333333333333,7.5,1,l,l,-1600,-800,-1600,-400,=,L,S,0.273421669894881,0.284784211498594,1.66082593067118,1.4468815585599,1.52231178099818,773151.341926332,773151.631612613,773151.631612613,773154.031140165,2.4,773155.721742856,773155.721742856,773157.321234863,1.6,773158.92531541,773159.429982269,0.504666859516874,77,Shorter,Ring,77,S,Ring
202,Temporal,2314,1,3,94,1200,2.5,5,1,m,m,-800,0,-800,400,S,=,L,0.482871392487635,0.313340627179598,1.43027372301134,1.7441217734535,1.37439007441439,773161.09194983,773161.591750417,773161.591750417,773164.79154417,3.2,773166.251816265,773166.251816265,773168.651553942,2.4,773170.558662628,773170.98219646,0.423533831257373,66,Shorter,Index,78,=,Middle
202,Temporal,2314,1,3,95,1200,10,5,1,l,l,-1600,0,-1600,-400,=,L,S,0.413358218961898,0.382818290581379,1.85392148264834,1.01026159508595,1.54108732211557,773172.492034009,773172.921640905,773172.921640905,773174.52161636,1.6,773176.411834794,773176.411834794,773178.811589795,2.4,773179.975418195,773180.574082611,0.598664416116662,78,Longer,Middle,78,L,Middle
202,Temporal,2314,1,3,96,1200,10,7.5,1,r,r,0,800,0,1200,S,=,L,0.237798403198257,0.312827648968367,1.93557217676765,1.92154801570801,1.45725098073861,773182.25875749,773182.511936841,773182.511936841,773183.311684912,0.8,773185.272061107,773185.272061107,773186.871743991,1.6,773188.942099116,773189.382052548,0.439953432418406,77,Longer,Ring,77,L,Ring
