Subject,Task,SequenceOrder,ListNo,RunNo,TrialNo,Aud_Probe_Dist,Aud_Standard_Vel,Aud_Probe_Vel,Main_Control,Aud_Std_StartCode,Aud_Probe_StartCode,Aud_Std_StartPt,Aud_Std_EndPt,Aud_Probe_StartPt,Aud_Probe_EndPt,RespIndex,RespMiddle,RespRing,ISI_Cross_Std,ISI_Cross_Probe,ISI_Std_Probe,ISI_Probe_Response,ITI,TrialOnset,StdOnset,StdOnsetByStop,StdOffset,StdDur,ProbeOnset,ProbeOnsetByStop,ProbeOffset,ProbeDur,RespWinStart,RespTime,RT,CorrectKC,CorrectResponse,CorrectFinger,SubjRespKC,SubjResponse,SubjRespFinger
205,Temporal,2314,2,1,1,800,1.25,3.33333333333333,1,l,l,-1600,-1200,-1600,-800,=,L,S,0.419584311222761,0.333355545723945,1.57606495828853,1.73203611620459,1.66334829130417,786331.411083511,786331.841622337,786331.841622337,786335.043833011,3.2,786336.654287209,786336.654287209,786339.054071402,2.4,786340.94444115,786341.831699329,0.887258179020137,77,Shorter,Ring,77,S,Ring
205,Temporal,2314,2,1,2,1200,20,7.5,1,l,l,-1600,0,-1600,-400,S,=,L,0.256020510394105,0.267088557034923,1.42015891643342,1.65762060891473,1.1427474226115,786343.627839813,786343.894269449,786343.894269449,786344.693945981,0.8,786346.144536597,786346.144536597,786347.744026358,1.6,786349.544481583,786351.087667126,1.5431855431525,77,Longer,Ring,77,L,Ring
205,Temporal,2314,2,1,3,800,7.5,3.33333333333333,1,m,m,-800,400,-800,0,S,=,L,0.373862578132932,0.216331643213274,1.02969598395393,1.79121963629311,1.68302774598959,786352.377878916,786352.764302354,786352.764302354,786354.364090461,1.6,786355.424452252,786355.424452252,786357.824133468,2.4,786359.761217238,786360.687535789,0.926318551762961,77,Longer,Ring,77,L,Ring
205,Temporal,2314,2,1,4,1200,10,5,1,m,m,-800,800,-800,400,=,L,S,0.29126209200083,0.445920077998251,1.35552410812765,1.56827916331886,1.73694108217085,786362.527917621,786362.834493799,786362.834493799,786364.434298588,1.6,786365.814667924,786365.814667924,786368.214494142,2.4,786369.927927052,786370.919626625,0.991699572885409,78,Longer,Middle,78,L,Middle
205,Temporal,2314,2,1,5,400,1.25,1.25,2,l,l,-1600,-1200,-1600,-1200,=,L,S,0.309598961674279,0.380550669071063,1.73681372962832,1.45509714424317,1.58495338308742,786372.794657623,786373.114539057,786373.114539057,786376.314501232,3.2,786378.084824465,786378.084824465,786381.284611161,3.2,786382.878005472,786383.911753506,1.03374803392217,66,Equals to,Index,66,=,Index
205,Temporal,2314,2,1,6,800,1.25,3.33333333333333,1,m,m,-800,-400,-800,0,L,S,=,0.298836883623451,0.474633402064908,1.56786644510125,1.8284834643841,1.68666759484521,786385.644723178,786385.954956177,786385.954956177,786389.154789068,3.2,786390.764680258,786390.764680258,786393.164706016,2.4,786395.144723339,786395.743876614,0.599153275601566,78,Shorter,Middle,77,=,Ring
205,Temporal,2314,2,1,7,800,15,5,1,m,m,-800,400,-800,0,L,S,=,0.449769572057203,0.322999257917918,1.7907653140568,1.67728048964839,1.60457255535291,786397.578090388,786398.044931793,786398.044931793,786398.84474627,0.8,786400.665059414,786400.665059414,786402.26484303,1.6,786404.09479406,786404.631632859,0.536838799365796,66,Longer,Index,66,L,Index
205,Temporal,2314,2,1,8,800,7.5,3.33333333333333,1,l,l,-1600,-400,-1600,-800,L,S,=,0.491543737760227,0.280979206627162,1.72396760235892,1.26810385945888,1.76480314534712,786406.378160901,786406.885269674,786406.885269674,786408.485094032,1.6,786410.235336353,786410.235336353,786412.635100656,2.4,786414.044823397,786415.079717977,1.03489457967225,66,Longer,Index,66,L,Index
205,Temporal,2314,2,1,9,1200,10,7.5,1,l,l,-1600,-800,-1600,-400,L,S,=,0.271264517882897,0.489498871009818,1.57741565458081,1.67089599574055,1.30448720091503,786416.994865887,786417.285479607,786417.285479607,786418.084982585,0.8,786419.685459525,786419.685459525,786421.285228704,1.6,786423.094433799,786424.071713008,0.977279208949767,66,Longer,Index,66,L,Index
205,Temporal,2314,2,1,10,1200,3.33333333333333,7.5,1,m,m,-800,0,-800,400,=,L,S,0.328305370795226,0.258895561144594,1.99789361534283,1.99139897603125,1.22812938420125,786425.528273711,786425.875523393,786425.875523393,786428.275262995,2.4,786430.305483848,786430.305483848,786431.905314622,1.6,786434.044926374,786434.623703279,0.578776904498227,77,Shorter,Ring,77,S,Ring
205,Temporal,2314,2,1,11,1200,6.66666666666667,7.5,1,m,m,-800,800,-800,400,=,L,S,0.44215894244822,0.384687274895312,1.17119501891175,1.59258332498374,1.92395991597766,786436.011656014,786436.465526758,786436.465526758,786438.865362922,2.4,786440.065732585,786440.065732585,786441.665245444,1.6,786443.394973163,786443.935812683,0.54083951911889,77,Shorter,Ring,66,=,Index
205,Temporal,2314,2,1,12,800,5,5,1,m,m,-800,400,-800,0,=,L,S,0.216521915550911,0.419437644890996,1.81192899402155,1.14892625750817,1.35904174476976,786445.995046499,786446.225619906,786446.225619906,786448.625481413,2.4,786450.475971425,786450.475971425,786452.075405367,1.6,786453.378351457,786453.847559773,0.4692083154805,77,Shorter,Ring,77,S,Ring
205,Temporal,2314,2,1,13,800,7.5,3.33333333333333,1,m,m,-800,400,-800,0,L,S,=,0.211002267555901,0.232724529417012,1.706738213299,1.15052628847619,1.80338460846117,786455.345068265,786455.575677602,786455.575677602,786457.175571254,1.6,786458.915835354,786458.915835354,786461.315607356,2.4,786462.61174539,786464.383613891,1.77186850074213,66,Longer,Index,66,L,Index
205,Temporal,2314,2,1,14,800,1.66666666666667,5,1,r,r,0,400,0,800,S,=,L,0.223511574433813,0.306814832379311,1.93548944014459,1.40184038615068,1.68676707564976,786466.328464203,786466.566145296,786466.566145296,786468.965630502,2.4,786470.926047439,786470.926047439,786472.525860569,1.6,786474.078455942,786475.679687372,1.60123142995872,66,Shorter,Index,78,=,Middle
205,Temporal,2314,2,1,15,400,1.66666666666667,1.25,2,r,r,0,400,0,400,L,S,=,0.417560864571021,0.445970522640831,1.08829050116455,1.45537299453682,1.57408196621977,786477.51189421,786477.946108783,786477.946108783,786480.34588239,2.4,786481.466141735,786481.466141735,786484.665931639,3.2,786486.261898738,786486.951644895,0.68974615749903,66,Longer,Index,66,L,Index
205,Temporal,2314,2,1,16,1200,2.5,5,1,l,l,-1600,-800,-1600,-400,=,L,S,0.442475725443331,0.329311859682016,1.11767576411209,1.57284419684845,1.75003539998018,786488.661874529,786489.116423768,786489.116423768,786492.316230033,3.2,786493.466192101,786493.466192101,786495.866022811,2.4,786497.578574479,786498.255691265,0.67711678694468,77,Shorter,Ring,66,=,Index
205,Temporal,2314,2,1,17,800,1.66666666666667,5,1,l,l,-1600,-1200,-1600,-800,S,=,L,0.364408985018883,0.237433673766913,1.03202192380643,1.04765897602028,1.80343488060638,786500.161951681,786500.546570609,786500.546570609,786502.946363464,2.4,786504.006401245,786504.006401245,786505.606211808,1.6,786506.812014434,786508.119668073,1.30765363865066,66,Shorter,Index,66,S,Index
205,Temporal,2314,2,1,18,400,10,5,2,l,l,-1600,-800,-1600,-1200,S,=,L,0.39321272489726,0.283432351964507,1.55574208449336,1.31715617750417,1.71639535378233,786510.062002336,786510.466731369,786510.466731369,786511.266252954,0.8,786512.846767357,786512.846767357,786513.646540771,0.8,786515.112032668,786517.687807509,2.57577484077774,78,Equals to,Middle,78,=,Middle
205,Temporal,2314,2,1,19,1600,15,20,2,m,m,-800,400,-800,800,L,S,=,0.388727011071554,0.483174147065088,1.42809138705679,1.78961502220138,1.85246753347624,786519.545407417,786519.946660241,786519.946660241,786520.746408954,0.8,786522.206572617,786522.206572617,786523.006379074,0.8,786524.945433357,786525.855625694,0.910192336188629,77,Equals to,Ring,77,=,Ring
205,Temporal,2314,2,1,20,1200,2.5,5,1,m,m,-800,0,-800,400,S,=,L,0.366564653720667,0.388441693849999,1.84786323536535,1.84995857031274,1.04403198024415,786527.862110703,786528.246964457,786528.246964457,786531.446452487,3.2,786533.326991046,786533.326991046,786535.726514748,2.4,786537.728798607,786540.271653082,2.54285447567236,66,Shorter,Index,78,=,Middle
205,Temporal,2314,2,1,21,1600,3.75,5,2,m,m,-800,400,-800,800,=,L,S,0.370108223045816,0.357477577219105,1.11257139239238,1.14914304036156,1.27644842392548,786541.478853544,786541.866981723,786541.866981723,786545.066818143,3.2,786546.206995755,786546.206995755,786549.406843082,3.2,786550.71220866,786551.271646987,0.559438327327371,66,Equals to,Index,78,L,Middle
205,Temporal,2314,2,1,22,400,5,5,2,r,r,0,800,0,400,S,=,L,0.445416790595173,0.361246579921752,1.60685626734083,1.8413139651634,1.7363083886321,786552.695571234,786553.157166245,786553.157166245,786554.757006964,1.6,786556.397012465,786556.397012465,786557.196828546,0.8,786559.17890638,786560.079640663,0.900734283379279,66,Shorter,Index,66,S,Index
205,Temporal,2314,2,1,23,1200,2.5,5,1,m,m,-800,0,-800,400,L,S,=,0.255486209211479,0.338944324962814,1.80833907106507,1.00009779511166,1.78422427617935,786561.978954757,786562.247198001,786562.247198001,786565.447104356,3.2,786567.287393511,786567.287393511,786569.687187328,2.4,786570.829007533,786572.055637948,1.22663041506894,78,Shorter,Middle,77,=,Ring
205,Temporal,2314,2,1,24,1200,6.66666666666667,7.5,1,l,l,-1600,0,-1600,-400,L,S,=,0.489721781748343,0.368025455124947,1.81146242099534,1.25280826644997,1.96210862518873,786573.995701643,786574.497340357,786574.497340357,786576.897227528,2.4,786578.737554537,786578.737554537,786580.337408088,1.6,786581.729051719,786582.151648809,0.422597089898773,78,Shorter,Middle,78,S,Middle
205,Temporal,2314,2,1,25,800,3.75,3.33333333333333,1,r,r,0,1200,0,800,=,L,S,0.22546697410503,0.48937060762324,1.95136754708959,1.49661893532774,1.91144586279033,786587.079069636,786587.317503331,786587.317503331,786590.517317936,3.2,786592.497582562,786592.497582562,786594.897437653,2.4,786596.545766394,786597.095529979,0.549763585091569,77,Shorter,Ring,78,L,Middle
205,Temporal,2314,2,1,26,1600,5,5,2,l,l,-1600,0,-1600,0,S,=,L,0.39069417910975,0.283653182855351,1.76840059226586,1.69346383427347,1.54114659745663,786599.162454378,786599.567762138,786599.567762138,786602.767626147,3.2,786604.557864759,786604.557864759,786607.757556497,3.2,786609.612548678,786610.167582396,0.555033717886545,78,Equals to,Middle,77,L,Ring
205,Temporal,2314,2,1,27,800,1.66666666666667,5,1,l,l,-1600,-1200,-1600,-800,S,=,L,0.22930997539065,0.305330935074827,1.30756530538251,1.21013935167026,1.19665433694283,786611.845892565,786612.087932394,786612.087932394,786614.487783955,2.4,786615.818173325,786615.818173325,786617.417698375,1.6,786618.779262619,786619.20749175,0.428229130455293,66,Shorter,Index,66,S,Index
205,Temporal,2314,2,1,28,800,2.5,3.33333333333333,1,m,m,-800,-400,-800,0,=,L,S,0.400892106898546,0.344580486387978,1.71786201987375,1.21840715945441,1.72217324562178,786620.562593093,786620.977906983,786620.977906983,786622.577741927,1.6,786624.3280452,786624.3280452,786626.727993965,2.4,786628.095920395,786629.367612936,1.27169254084583,78,Longer,Middle,78,L,Middle
205,Temporal,2314,2,1,29,400,2.5,5,2,r,r,0,400,0,400,=,L,S,0.236687362448394,0.3871839064383,1.83877546060778,1.83148120135571,1.29181387855372,786631.229347338,786631.478260667,786631.478260667,786633.078231952,1.6,786634.94818405,786634.94818405,786635.748022266,0.8,786637.729313494,786638.831594427,1.1022809331771,77,Shorter,Ring,77,S,Ring
205,Temporal,2314,2,1,30,400,10,5,2,m,m,-800,0,-800,-400,L,S,=,0.45193107058247,0.395653998490092,1.46684229095665,1.00925991297026,1.97543825865563,786640.262706833,786640.728190652,786640.728190652,786641.528201139,0.8,786643.028462467,786643.028462467,786643.828234599,0.8,786644.979379819,NaN,NaN,77,Equals to,Ring,999,Missed,Missed
205,Temporal,2314,2,1,31,800,1.25,3.33333333333333,1,l,l,-1600,-1200,-1600,-800,S,=,L,0.297929007165054,0.24690904709878,1.79432704106384,1.41289088104841,1.84145712063854,786650.029425502,786650.338163291,786650.338163291,786653.538194437,3.2,786655.358602539,786655.358602539,786657.758488106,2.4,786659.329457362,786659.727582447,0.398125084815547,66,Shorter,Index,78,=,Middle
205,Temporal,2314,2,1,32,1200,5,5,1,r,r,0,800,0,1200,=,L,S,0.226707834208547,0.440717025599447,1.68452229825158,1.75887879391604,1.2414429777218,786661.712817815,786661.958332296,786661.958332296,786663.558288182,1.6,786665.278736673,786665.278736673,786667.678524074,2.4,786669.579499029,786670.087541692,0.508042662753724,78,Longer,Middle,78,L,Middle
205,Temporal,2314,2,1,33,800,1.66666666666667,5,1,l,l,-1600,-1200,-1600,-800,=,L,S,0.447720497236336,0.207884127608855,1.03863169825742,1.35797136710174,1.41093370331886,786671.479518245,786671.938818561,786671.938818561,786674.338659536,2.4,786675.398823071,786675.398823071,786676.998595138,1.6,786678.496230245,786679.183620563,0.687390318023972,77,Shorter,Ring,66,=,Index
205,Temporal,2314,2,1,34,1600,6.66666666666667,5,2,l,l,-1600,0,-1600,0,S,=,L,0.380951272715482,0.392481569755771,1.74982278653131,1.16086015296383,1.67444768726403,786680.762921337,786681.15878854,786681.15878854,786683.558581074,2.4,786685.348830915,786685.348830915,786688.548666051,3.2,786689.862907896,786691.11167754,1.24876964464784,77,Longer,Ring,77,L,Ring
205,Temporal,2314,2,1,35,1200,5,5,1,r,r,0,800,0,1200,S,=,L,0.349482289895325,0.45738976239319,1.54847288078364,1.24278972570598,1.40697399727325,786692.929600355,786693.299261896,786693.299261896,786694.898696159,1.6,786696.479262852,786696.479262852,786698.878702504,2.4,786700.263010283,786700.647576711,0.38456642802339,77,Longer,Ring,78,=,Middle
205,Temporal,2314,2,1,36,1200,10,5,1,l,l,-1600,0,-1600,-400,L,S,=,0.373005572532819,0.236116347276457,1.93325446577246,1.49144720836811,1.74860507691577,786702.196366983,786702.589401506,786702.589401506,786704.189123207,1.6,786706.159214244,786706.159214244,786708.559044633,2.4,786710.196341961,786711.031532576,0.835190615616739,66,Longer,Index,66,L,Index
205,Temporal,2314,2,1,37,800,5,5,1,r,r,0,400,0,800,L,S,=,0.244126551481555,0.238228465421533,1.95773702261902,1.20006523978281,1.13681020889577,786712.929750346,786713.189445969,786713.189445969,786713.989244406,0.8,786715.989536371,786715.989536371,786717.589259034,1.6,786718.946442873,786720.03975569,1.09331281716004,66,Longer,Index,66,L,Index
205,Temporal,2314,2,1,38,400,5,5,2,r,r,0,800,0,400,S,=,L,0.417785154406773,0.401582299778368,1.84066778723314,1.98565280593646,1.78826821451794,786721.329777566,786721.759311319,786721.759311319,786723.359112579,1.6,786725.239493624,786725.239493624,786726.039293665,0.8,786728.179824194,786729.223563602,1.04373940755613,66,Shorter,Index,66,S,Index
205,Temporal,2314,2,1,39,400,3.33333333333333,1.25,2,m,m,-800,0,-800,-400,=,L,S,0.436851655059172,0.238800001535536,1.5518349398725,1.01275950642537,1.72566252808836,786731.163171049,786731.619543727,786731.619543727,786734.019523609,2.4,786735.599486553,786735.599486553,786738.799338372,3.2,786739.963195045,786740.535448123,0.572253077989444,78,Longer,Middle,78,L,Middle
205,Temporal,2314,2,1,40,1200,5,5,1,r,r,0,800,0,1200,=,L,S,0.428421713127206,0.266949339870069,1.03964719036153,1.84249181745157,1.67790597494661,786742.396550546,786742.839721265,786742.839721265,786744.43946061,1.6,786745.519793279,786745.519793279,786747.919606665,2.4,786749.896581824,786750.367548455,0.470966630498879,78,Longer,Middle,78,L,Middle
205,Temporal,2314,2,1,41,1200,10,7.5,1,r,r,0,800,0,1200,L,S,=,0.49669667069155,0.282056525399282,1.84634562172887,1.05098972408605,1.59011224695222,786752.179957648,786752.68972234,786752.68972234,786753.489757208,0.8,786755.369768689,786755.369768689,786756.96981055,1.6,786758.163307715,786759.127640961,0.96433324564714,66,Longer,Index,66,L,Index
205,Temporal,2314,2,1,42,1600,7.5,20,2,l,l,-1600,-400,-1600,0,=,L,S,0.446247039070352,0.461445404285535,1.54774517222456,1.2791435659689,1.98806237294722,786760.863318201,786761.319923139,786761.319923139,786762.9198447,1.6,786764.490004902,786764.490004902,786765.289845043,0.8,786766.729965042,786767.2155134,0.48554835782852,77,Shorter,Ring,77,S,Ring
205,Temporal,2314,2,1,43,800,1.25,3.33333333333333,1,l,l,-1600,-1200,-1600,-800,S,=,L,0.382765719033288,0.306829558150069,1.31966818912345,1.48386745277411,1.76657109052057,786769.346689918,786769.740085343,786769.740085343,786772.93993652,3.2,786774.300081865,786774.300081865,786776.699899422,2.4,786778.330084625,786778.759572166,0.429487540386617,66,Shorter,Index,78,=,Middle
205,Temporal,2314,2,1,44,800,5,5,1,m,m,-800,400,-800,0,L,S,=,0.333401569675958,0.399595779094762,1.56498422404088,1.3712164843094,1.45584082465611,786780.680076184,786781.030137374,786781.030137374,786783.429960063,2.4,786785.030350707,786785.030350707,786786.63016512,1.6,786788.146777112,786788.655539975,0.508762862998992,78,Shorter,Middle,78,S,Middle
205,Temporal,2314,2,1,45,1600,5,5,2,r,r,0,1600,0,1600,=,L,S,0.330277692723433,0.208014351728711,1.06849584199273,1.92093159252745,1.47907057715972,786790.263488948,786790.610256192,786790.610256192,786793.810078176,3.2,786794.910539236,786794.910539236,786798.110150453,3.2,786800.180209305,786800.927662391,0.747453086194582,66,Equals to,Index,66,=,Index
205,Temporal,2314,2,1,46,800,5,5,1,r,r,0,400,0,800,S,=,L,0.44379494927822,0.249337274443517,1.14496992120006,1.34865641720816,1.21157917422218,786802.546859366,786803.010685874,786803.010685874,786803.810438758,0.8,786804.990571278,786804.990571278,786806.590416487,1.6,786808.096857136,786808.647415989,0.550558852846734,77,Longer,Ring,77,L,Ring
205,Temporal,2314,2,1,47,1200,6.66666666666667,7.5,1,r,r,0,1600,0,1200,L,S,=,0.44318415884771,0.431006683824115,1.82771978834671,1.67154726397737,1.22174315353227,786810.013597828,786810.470783738,786810.470783738,786812.870560553,2.4,786814.720895939,786814.720895939,786816.320337901,1.6,786818.129813431,786818.527517902,0.397704470204189,78,Shorter,Middle,78,S,Middle
205,Temporal,2314,2,1,48,400,3.33333333333333,1.25,2,r,r,0,800,0,400,S,=,L,0.483881709514788,0.381677002203674,1.19112881843071,1.10354004651211,1.37822862307202,786819.896980581,786820.40079889,786820.40079889,786822.800604577,2.4,786824.020940306,786824.020940306,786827.220519442,3.2,786828.463623797,786829.135315825,0.671692027710378,77,Longer,Ring,77,L,Ring
205,Temporal,2314,2,1,49,800,2.5,3.33333333333333,1,r,r,0,400,0,800,L,S,=,0.323879118840282,0.344008652147325,1.21307233628177,1.4982344909492,1.92126058770566,786834.830356773,786835.170938589,786835.170938589,786836.770811067,1.6,786838.011002827,786838.011002827,786840.410811401,2.4,786842.063737553,786842.663634448,0.599896894302219,66,Longer,Index,66,L,Index
205,Temporal,2314,2,1,50,1200,10,7.5,1,m,m,-800,0,-800,400,=,L,S,0.469549442740356,0.372736871158056,1.35428522550933,1.85816442734839,1.16733232573768,786844.730462927,786845.211079562,786845.211079562,786846.010852335,0.8,786847.401227802,786847.401227802,786849.00097228,1.6,786850.997088723,786851.783479282,0.786390558932908,78,Longer,Middle,78,L,Middle
205,Temporal,2314,2,1,51,400,2.5,1.25,2,l,l,-1600,-800,-1600,-1200,=,L,S,0.409449479637844,0.359909676609789,1.98705914383708,1.31389526796404,1.27307066484716,786853.097141046,786853.521331523,786853.521331523,786856.720918039,3.2,786858.731452565,786858.731452565,786861.931286098,3.2,786863.397189636,786864.495605175,1.09841553936712,66,Equals to,Index,66,=,Index
205,Temporal,2314,2,1,52,1600,10,20,2,r,r,0,1600,0,1600,=,L,S,0.340342886003719,0.349912501674066,1.96904529774301,1.90273357527598,1.0584792922819,786865.913852192,786866.271431052,786866.271431052,786867.871241295,1.6,786869.861387259,786869.861387259,786870.661181526,0.8,786872.713865922,786873.479487448,0.765621526283212,77,Shorter,Ring,77,S,Ring
205,Temporal,2314,2,1,53,800,5,5,1,r,r,0,1200,0,800,L,S,=,0.2506724716888,0.30969253127026,1.81238120980013,1.79509114691812,1.20119510229855,786874.680596204,786874.941459081,786874.941459081,786877.341512427,2.4,786879.191423712,786879.191423712,786880.79124807,1.6,786882.747297152,NaN,NaN,78,Shorter,Middle,999,Missed,Missed
205,Temporal,2314,2,1,54,800,5,5,1,l,l,-1600,-1200,-1600,-800,S,=,L,0.260478313531706,0.258079226965532,1.9581138020026,1.52493102115654,1.40059241079006,786887.080647019,786887.351802502,786887.351802502,786888.151353922,0.8,786890.141846353,786890.141846353,786891.741367553,1.6,786893.413961425,786895.04732918,1.63336775533389,77,Longer,Ring,77,L,Ring
205,Temporal,2314,2,1,55,1200,2.5,5,1,r,r,0,800,0,1200,S,=,L,0.234727157582377,0.265170152528449,1.18184574251442,1.86753521244479,1.2032494896074,786896.597341387,786896.851953439,786896.851953439,786900.051775103,3.2,786901.262033804,786901.262033804,786903.661851681,2.4,786905.680740023,786906.087264199,0.406524175195955,66,Shorter,Index,78,=,Middle
205,Temporal,2314,2,1,56,800,3.75,3.33333333333333,1,r,r,0,1200,0,800,=,L,S,0.403791871694042,0.421578401901264,1.67692500554515,1.42623920719128,1.33589487946103,786907.447410792,786907.862049395,786907.862049395,786911.061636231,3.2,786912.77195829,786912.77195829,786915.171757882,2.4,786916.730769934,786918.83133971,2.10056977625936,77,Shorter,Ring,66,=,Index
205,Temporal,2314,2,1,57,800,15,5,1,m,m,-800,400,-800,0,=,L,S,0.486444961154263,0.45765777135039,1.5867903742026,1.83247097941899,1.45572780645951,786920.314137834,786920.812039594,786920.812039594,786921.611867224,0.8,786923.232208535,786923.232208535,786924.831996963,1.6,786926.814145052,786927.503459367,0.689314314862713,78,Longer,Middle,78,L,Middle
205,Temporal,2314,2,1,58,400,2.5,1.25,2,r,r,0,800,0,400,S,=,L,0.432302231203045,0.285026737116207,1.56429165695565,1.11851412944161,1.47869288471662,786929.097542369,786929.542141298,786929.542141298,786932.742109567,3.2,786934.342399479,786934.342399479,786937.542238466,3.2,786938.814203117,786941.527470744,2.71326762670651,78,Equals to,Middle,77,L,Ring
205,Temporal,2314,2,1,59,400,1.25,1.25,2,m,m,-800,-400,-800,-400,L,S,=,0.261253532164958,0.447222409547407,1.80012385328321,1.50277295138393,1.4122298021237,786943.164261134,786943.442392774,786943.442392774,786946.642194548,3.2,786948.4826348,786948.4826348,786951.68242727,3.2,786953.330986768,786954.015411,0.684424231993034,77,Equals to,Ring,66,L,Index
205,Temporal,2314,2,1,60,1200,3.33333333333333,7.5,1,m,m,-800,0,-800,400,S,=,L,0.294967194329322,0.374642469125407,1.79009636061893,1.51497814325878,1.24879237484549,786955.580723851,786955.892511455,786955.892511455,786958.292353072,2.4,786960.12253761,786960.12253761,786961.722401426,1.6,786963.381009942,786963.767352252,0.386342310346663,66,Shorter,Index,78,=,Middle
205,Temporal,2314,2,1,61,400,5,5,2,l,l,-1600,-1200,-1600,-1200,=,L,S,0.334936740460452,0.313791325057253,1.58086684863103,1.32950159775216,1.91465719331734,786965.147710646,786965.502801367,786965.502801367,786966.302669097,0.8,786967.912682192,786967.912682192,786968.712446303,0.8,786970.197750156,786970.711238234,0.513488078024238,66,Equals to,Index,66,=,Index
205,Temporal,2314,2,1,62,1200,3.33333333333333,7.5,1,r,r,0,800,0,1200,S,=,L,0.250005601542,0.401522574026853,1.58173426107362,1.96767583659872,1.4886440971381,786972.781074872,786973.042807122,786973.042807122,786975.442638473,2.4,786977.062699403,786977.062699403,786978.662705014,1.6,786980.781110161,786981.279358101,0.498247940675355,66,Shorter,Index,78,=,Middle
205,Temporal,2314,2,1,63,1600,3.75,5,2,r,r,0,1200,0,1600,S,=,L,0.474873203546157,0.238751264427529,1.07949566019302,1.55439481820461,1.31488729763202,786982.91449572,786983.402942488,786983.402942488,786986.602833765,3.2,786987.712836113,786987.712836113,786990.912869184,3.2,786992.614529955,786993.055213848,0.440683893626556,78,Equals to,Middle,77,L,Ring
205,Temporal,2314,2,1,64,1200,5,5,1,m,m,-800,800,-800,400,L,S,=,0.281260552562329,0.421015507595315,1.83490302124973,1.92608292680961,1.7644670719906,786994.514516765,786994.813284947,786994.813284947,786998.013104043,3.2,786999.883153986,786999.883153986,787002.282963843,2.4,787004.347889076,787005.03145013,0.683561054524034,78,Shorter,Middle,77,=,Ring
205,Temporal,2314,2,1,65,800,3.75,3.33333333333333,1,l,l,-1600,-400,-1600,-800,L,S,=,0.458181196200661,0.363997401828315,1.81499372209543,1.40879985097088,1.89758880673505,787006.947652837,787007.423301856,787007.423301856,787010.623270447,3.2,787012.463324454,787012.463324454,787014.863229268,2.4,787016.414605595,787017.27941777,0.864812175394036,78,Shorter,Middle,66,L,Index
205,Temporal,2314,2,1,66,1200,10,5,1,l,l,-1600,0,-1600,-400,L,S,=,0.275775542323768,0.35947552856766,1.17492220633296,1.80958854161504,1.39433576448956,787019.331318698,787019.623359986,787019.623359986,787021.223251712,1.6,787022.423506207,787022.423506207,787024.823333709,2.4,787026.764658479,787027.207420532,0.442762052640319,66,Longer,Index,66,L,Index
205,Temporal,2314,2,1,67,1600,5,5,2,l,l,-1600,-400,-1600,0,L,S,=,0.415025151092144,0.402285411694204,1.13277452069504,1.36538452797259,1.34318136195705,787028.764703391,787029.193572122,787029.193572122,787031.593352145,2.4,787032.763574134,787032.763574134,787035.963391626,3.2,787037.481436774,787039.719347143,2.23791036824696,66,Longer,Index,77,=,Ring
205,Temporal,2314,2,1,68,800,5,5,1,l,l,-1600,-1200,-1600,-800,=,L,S,0.392474131346117,0.312937263946855,1.17400729388674,1.14321599455017,1.22805085428866,787041.19810605,787041.603687454,787041.603687454,787042.403532407,0.8,787043.603886351,787043.603886351,787045.203673175,1.6,787046.498090748,787047.879449722,1.38135897438042,78,Longer,Middle,78,L,Middle
205,Temporal,2314,2,1,69,400,5,5,2,r,r,0,400,0,400,S,=,L,0.318372526519583,0.400822178091946,1.95668017237588,1.65683090119453,1.83381146166577,787049.248129003,787049.584055022,787049.584055022,787050.383775825,0.8,787052.37397376,787052.37397376,787053.173719906,0.8,787054.964750934,787055.343441158,0.378690223791637,78,Equals to,Middle,78,=,Middle
205,Temporal,2314,2,1,70,1200,20,7.5,1,m,m,-800,800,-800,400,L,S,=,0.238293507583819,0.4206582112148,1.92271020031139,1.84881592344516,1.39991167942314,787057.33151182,787057.583880827,787057.583880827,787058.383788978,0.8,787060.334151343,787060.334151343,787061.933677676,1.6,787063.931546339,787064.423390112,0.491843773284927,66,Longer,Index,66,L,Index
205,Temporal,2314,2,1,71,1200,10,7.5,1,r,r,0,800,0,1200,=,L,S,0.401796645356776,0.249825663776955,1.51156943021263,1.50363900722643,1.27513661454466,787065.964919034,787066.384041163,787066.384041163,787067.183860132,0.8,787068.724059366,787068.724059366,787070.323879232,1.6,787071.964947461,787072.735596077,0.770648615900427,78,Longer,Middle,78,L,Middle
205,Temporal,2314,2,1,72,800,3.75,3.33333333333333,1,m,m,-800,400,-800,0,L,S,=,0.406798792089882,0.413362892953311,1.30146335191765,1.30415597789153,1.49458400256776,787074.16494348,787074.584273167,787074.584273167,787077.784035803,3.2,787079.114225313,787079.114225313,787081.514049286,2.4,787082.964922563,787083.527381882,0.562459318316542,78,Shorter,Middle,77,=,Ring
205,Temporal,2314,2,1,73,1200,5,5,1,m,m,-800,800,-800,400,S,=,L,0.369689053215942,0.312925623982101,1.26864361378045,1.39021207716323,1.42760043612363,787087.631684187,787088.014555707,787088.014555707,787091.214071967,3.2,787092.514594364,787092.514594364,787094.914410317,2.4,787096.448362932,787096.895321394,0.44695846165996,66,Shorter,Index,77,L,Ring
205,Temporal,2314,2,1,74,800,2.5,3.33333333333333,1,l,l,-1600,-1200,-1600,-800,=,L,S,0.234109969718579,0.272745744922829,1.57271841742832,1.75523740753474,1.68332504807368,787098.481739157,787098.734696513,787098.734696513,787100.334372019,1.6,787101.934674763,787101.934674763,787104.33445639,2.4,787106.231761693,787106.975384874,0.74362318101339,78,Longer,Middle,78,L,Middle
205,Temporal,2314,2,1,75,1600,5,5,2,l,l,-1600,-400,-1600,0,L,S,=,0.339069814533805,0.349679703101642,1.84256872669544,1.75344360846062,1.84642336320678,787108.815129593,787109.164568106,787109.164568106,787111.564569803,2.4,787113.43484944,787113.43484944,787116.634468035,3.2,787118.531855018,787119.487451675,0.955596657237038,66,Longer,Index,66,L,Index
205,Temporal,2314,2,1,76,1600,15,20,2,l,l,-1600,-400,-1600,0,S,=,L,0.297688719738574,0.225714133042975,1.64610482365492,1.4632854854299,1.62355969347682,787121.465200217,787121.774921858,787121.774921858,787122.574652285,0.8,787124.264907867,787124.264907867,787125.0647525,0.8,787126.681877807,787127.095512656,0.413634848548099,78,Equals to,Middle,78,=,Middle
205,Temporal,2314,2,1,77,400,1.66666666666667,1.25,2,m,m,-800,-400,-800,-400,S,=,L,0.32195873284939,0.262412461987034,1.46420110338517,1.24948036270767,1.49254125859648,787128.865231463,787129.204966683,787129.204966683,787131.604837172,2.4,787133.09510039,787133.09510039,787136.294861742,3.2,787137.698625,787138.103366848,0.404741848004051,77,Longer,Ring,77,L,Ring
205,Temporal,2314,2,1,78,1600,6.66666666666667,5,2,m,m,-800,800,-800,800,L,S,=,0.301794367002489,0.392321500058616,1.61965829757942,1.15667255259901,1.98748356746404,787139.748614216,787140.064962019,787140.064962019,787142.464831866,2.4,787144.115109443,787144.115109443,787147.314971848,3.2,787148.615316235,787149.19136055,0.576044314308092,66,Longer,Index,66,L,Index
205,Temporal,2314,2,1,79,1200,3.33333333333333,7.5,1,l,l,-1600,-800,-1600,-400,L,S,=,0.249173275430023,0.2499727499602,1.75802321688455,1.90427111481222,1.83721824720357,787151.332033765,787151.595314525,787151.595314525,787153.995082999,2.4,787155.785221842,787155.785221842,787157.385017649,1.6,787159.432069779,787160.063337193,0.631267413147725,78,Shorter,Middle,77,=,Ring
205,Temporal,2314,2,1,80,1200,5,5,1,r,r,0,1600,0,1200,=,L,S,0.320093070922419,0.459074825423351,1.95193951524143,1.09763659959631,1.84431185596954,787162.048366012,787162.385474185,787162.385474185,787165.585090856,3.2,787167.565641317,787167.565641317,787169.96542968,2.4,787171.215451165,787173.007484628,1.79203346348368,77,Shorter,Ring,66,=,Index
205,Temporal,2314,2,1,81,1200,5,5,1,r,r,0,1600,0,1200,=,L,S,0.307787988104999,0.256198221180443,1.83476638255292,1.19326294626876,1.87908688666977,787175.015465216,787175.335462139,787175.335462139,787178.535379401,3.2,787180.395535814,787180.395535814,787182.795410153,2.4,787184.13216523,787185.815328169,1.68316293938551,77,Shorter,Ring,78,L,Middle
205,Temporal,2314,2,1,82,800,15,5,1,m,m,-800,400,-800,0,S,=,L,0.345032051261042,0.372112949729374,1.15565385302004,1.95228400632802,1.93692229810655,787187.832218386,787188.195435981,787188.195435981,787188.9955395,0.8,787190.1857776,787190.1857776,787191.785565707,1.6,787193.882214713,787194.367517337,0.48530262359418,77,Longer,Ring,78,=,Middle
205,Temporal,2314,2,1,83,800,2.5,3.33333333333333,1,m,m,-800,-400,-800,0,=,L,S,0.430626242213473,0.226566617107484,1.53902085489088,1.88959953858245,1.96185155800665,787196.448934553,787196.896077488,787196.896077488,787198.495596443,1.6,787200.066039913,787200.066039913,787202.465920668,2.4,787204.498969989,787205.175262071,0.676292082178406,78,Longer,Middle,78,L,Middle
205,Temporal,2314,2,1,84,1600,7.5,20,2,l,l,-1600,-400,-1600,0,L,S,=,0.482399658782672,0.393587544420554,1.27722734657896,1.11186229093511,1.86796927552516,787207.282334822,787207.775947461,787207.775947461,787209.375782084,1.6,787210.696003961,787210.696003961,787211.495788282,0.8,787212.765676063,787213.831328482,1.06565241946373,78,Shorter,Middle,78,S,Middle
205,Temporal,2314,2,1,85,1200,20,7.5,1,r,r,0,1600,0,1200,=,L,S,0.237037004101403,0.484730228565689,1.08295700914608,1.85197766657711,1.02431791286439,787215.849015251,787216.106187302,787216.106187302,787216.905876025,0.8,787218.015850143,787218.015850143,787219.615921518,1.6,787221.615724989,787222.303209077,0.687484087888151,78,Longer,Middle,78,L,Middle
205,Temporal,2314,2,1,86,1200,6.66666666666667,7.5,1,l,l,-1600,0,-1600,-400,S,=,L,0.492242072595102,0.279367998355341,1.74919562582734,1.03290054356351,1.52730251562046,787223.465748147,787223.97637772,787223.97637772,787226.376221262,2.4,787228.166270281,787228.166270281,787229.766102979,1.6,787230.949053779,787232.151324479,1.20227069966495,66,Shorter,Index,78,=,Middle
205,Temporal,2314,2,1,87,1600,20,20,2,m,m,-800,800,-800,800,=,L,S,0.462884228947122,0.47943601858277,1.49133884099422,1.57405230893831,1.0786584798175,787233.815815788,787234.296393927,787234.296393927,787235.096200064,0.8,787236.626309438,787236.626309438,787237.426201549,0.8,787239.149153938,787239.631307566,0.482153628021479,66,Equals to,Index,66,=,Index
205,Temporal,2314,2,1,88,1200,10,5,1,m,m,-800,800,-800,400,S,=,L,0.335271823367297,0.455197446516971,1.94488663995104,1.12537190097189,1.4502170679724,787240.8657903,787241.216512663,787241.216512663,787242.816381291,1.6,787244.796736704,787244.796736704,787247.196208116,2.4,787248.465387566,787248.959242766,0.493855200940743,77,Longer,Ring,78,=,Middle
205,Temporal,2314,2,1,89,1600,10,20,2,l,l,-1600,0,-1600,0,S,=,L,0.299674009607288,0.397427747403874,1.29510552544034,1.63494217314174,1.00967866260913,787250.565854685,787250.876490931,787250.876490931,787252.476397414,1.6,787253.806605211,787253.806605211,787254.606438936,0.8,787256.382561507,787256.943114133,0.560552625684068,66,Shorter,Index,78,=,Middle
205,Temporal,2314,2,1,90,800,5,5,1,m,m,-800,400,-800,0,S,=,L,0.317856124364994,0.282891202424657,1.46607996036261,1.11317881496972,1.37398134903475,787258.09925513,787258.436812426,787258.436812426,787260.836647948,2.4,787262.326939717,787262.326939717,787263.92643012,1.6,787265.199237518,787265.615276135,0.416038616909646,66,Shorter,Index,78,=,Middle
205,Temporal,2314,2,1,91,400,2.5,5,2,r,r,0,400,0,400,L,S,=,0.308954956051335,0.263852452882749,1.69613434701452,1.49941680674978,1.75069460594357,787267.132645743,787267.456814101,787267.456814101,787269.056637175,1.6,787270.776757165,787270.776757165,787271.576625858,0.8,787273.232642936,787273.663246277,0.430603341665119,78,Shorter,Middle,78,S,Middle
205,Temporal,2314,2,1,92,1600,20,20,2,l,l,-1600,0,-1600,0,=,L,S,0.231342521228305,0.405145899011354,1.19907507998683,1.43802245735517,1.25881888728153,787275.566017011,787275.817124945,787275.817124945,787276.616634339,0.8,787277.846909151,787277.846909151,787278.646723949,0.8,787280.232645823,787280.671192218,0.438546395394951,66,Equals to,Index,66,=,Index
205,Temporal,2314,2,1,93,800,7.5,3.33333333333333,1,r,r,0,1200,0,800,L,S,=,0.342918566471282,0.495426485596986,1.56232559053391,1.19620889328319,1.82858461066622,787282.066057592,787282.427053955,787282.427053955,787284.026929962,1.6,787285.626901959,787285.626901959,787288.026785922,2.4,787289.382749928,787289.959271639,0.576521710725501,66,Longer,Index,66,L,Index
205,Temporal,2314,2,1,94,1200,5,5,1,m,m,-800,0,-800,400,L,S,=,0.383960604269744,0.40412786665379,1.31647341628745,1.20567862730446,1.92540144847659,787291.949409869,787292.347295557,787292.347295557,787293.947109649,1.6,787295.297274849,787295.297274849,787297.697059363,2.4,787299.049420167,787300.343237128,1.29381696146447,66,Longer,Index,66,L,Index
205,Temporal,2314,2,1,95,800,15,5,1,r,r,0,1200,0,800,S,=,L,0.310663953931757,0.277487500370939,1.64344914149681,1.20599154994262,1.7552376717345,787302.416161484,787302.737115039,787302.737115039,787303.537096012,0.8,787305.207506792,787305.207506792,787306.807292975,1.6,787308.149511632,787309.655266652,1.5057550201891,77,Longer,Ring,77,L,Ring
205,Temporal,2314,2,1,96,1200,20,7.5,1,r,r,0,1600,0,1200,L,S,=,0.385358699876297,0.373004837987333,1.18476505865971,1.44834729530271,1.6987948340419,787311.549516568,787311.947404181,787311.947404181,787312.747396703,0.8,787313.967458467,787313.967458467,787315.567236308,1.6,787317.166200702,787317.847243462,0.681042760028504,66,Longer,Index,66,L,Index
