Subject,Task,SequenceOrder,ListNo,RunNo,TrialNo,Aud_Probe_Dist,Aud_Standard_Vel,Aud_Probe_Vel,Main_Control,Aud_Std_StartCode,Aud_Probe_StartCode,Aud_Std_StartPt,Aud_Std_EndPt,Aud_Probe_StartPt,Aud_Probe_EndPt,RespIndex,RespMiddle,RespRing,ISI_Cross_Std,ISI_Cross_Probe,ISI_Std_Probe,ISI_Probe_Response,ITI,TrialOnset,StdOnset,StdOnsetByStop,StdOffset,StdDur,ProbeOnset,ProbeOnsetByStop,ProbeOffset,ProbeDur,RespWinStart,RespTime,RT,CorrectKC,CorrectResponse,CorrectFinger,SubjRespKC,SubjResponse,SubjRespFinger
210,Spatial,4132,2,4,1,800,2.5,3.33333333333333,1,m,m,-800,-400,-800,0,=,L,S,0.444105732820225,0.225233336153109,1.47702207562141,1.40451281319372,1.27161486769887,6216.45115571963,6216.90629031513,6216.90629031513,6218.50893010119,1.6,6221.62901063521,6221.62901063521,6224.02889229794,2.4,6228.0025593547,6228.64974310213,0.647183747423696,78,Longer,Middle,78,L,Middle
210,Spatial,4132,2,4,2,1200,3.33333333333333,7.5,1,r,r,0,800,0,1200,S,=,L,0.455381033328353,0.282703290826943,1.3632073167301,1.70479749154306,1.02755104083321,6230.10125426987,6230.56917537322,6230.56917537322,6232.96935794779,2.4,6236.77930198717,6236.77930198717,6238.37930735098,1.6,6241.85139734736,6242.34565243334,0.494255085987788,77,Longer,Ring,78,=,Middle
210,Spatial,4132,2,4,3,400,5,5,2,r,r,0,400,0,400,L,S,=,0.469993063723159,0.272849645616175,1.73017425966322,1.16099130844909,1.13501441822962,6243.53465362416,6244.01941231724,6244.01941231724,6244.81944963288,0.8,6247.39955059554,6247.39955059554,6248.19928347051,0.8,6250.3179717515,6251.22570281202,0.907731060518927,77,Equals to,Ring,77,=,Ring
210,Spatial,4132,2,4,4,1200,6.66666666666667,7.5,1,m,m,-800,800,-800,400,=,L,S,0.397156541315805,0.450078231422339,1.34931550263225,1.41423418748096,1.98735864790233,6252.51800819455,6252.92953302844,6252.92953302844,6255.32958054557,2.4,6259.11946839335,6259.11946839335,6260.71949493005,1.6,6263.90124028292,6264.53751741952,0.636277136602075,77,Shorter,Ring,66,=,Index
210,Spatial,4132,2,4,5,800,2.5,3.33333333333333,1,m,m,-800,-400,-800,0,=,L,S,0.299030748082712,0.340765161039806,1.91671427620777,1.43539159339236,1.09488367236533,6266.70134499254,6267.01976391573,6267.01976391573,6268.61979045243,1.6,6272.17994942885,6272.17994942885,6274.57982724195,2.4,6278.58465952691,6279.1054638277,0.520804300793316,78,Longer,Middle,78,L,Middle
210,Spatial,4132,2,4,6,400,1.25,1.25,2,l,l,-1600,-1200,-1600,-1200,L,S,=,0.438081309111434,0.413156762860297,1.44573804886226,1.02483997824774,1.44297885493215,6280.36801967925,6280.81983814921,6280.81983814921,6284.01998524313,3.2,6288.71018529497,6288.71018529497,6291.91003789308,3.2,6296.30117362036,6296.84954856807,0.548374947709817,77,Equals to,Ring,77,=,Ring
210,Spatial,4132,2,4,7,800,5,5,1,m,m,-800,400,-800,0,=,L,S,0.399895880821152,0.477848423987951,1.2536850433223,1.40510790228595,1.90143336524998,6298.46794133951,6298.88005420263,6298.88005420263,6301.28009690773,2.4,6304.97012789716,6304.97012789716,6306.57023110543,1.6,6309.75111991818,6310.30560356885,0.554483650670591,77,Shorter,Ring,77,S,Ring
210,Spatial,4132,2,4,8,800,15,5,1,m,m,-800,400,-800,0,S,=,L,0.495743672041949,0.295818218607274,1.88987145472167,1.90197233216505,1.88916794764648,6312.3679269676,6312.88029031256,6312.88029031256,6313.68001452589,0.8,6316.41033177296,6316.41033177296,6318.01025501156,1.6,6321.6845866408,6322.24942223642,0.564835595625482,66,Shorter,Index,77,L,Ring
210,Spatial,4132,2,4,9,1200,2.5,5,1,l,l,-1600,-800,-1600,-400,L,S,=,0.326041081883618,0.446721308366974,1.88704459485114,1.62755162577227,1.63656941223513,6324.31800832288,6324.66047228403,6324.66047228403,6327.86037524798,3.2,6332.99034063991,6332.99034063991,6335.39027523489,2.4,6339.5846380332,6340.09751725271,0.512879219502793,66,Longer,Index,78,S,Middle
210,Spatial,4132,2,4,10,800,5,5,1,r,r,0,400,0,800,L,S,=,0.219905416724632,0.252875060873769,1.26121633537401,1.12524561663077,1.89969623760944,6341.90124349094,6342.1405126537,6342.1405126537,6342.9407100493,0.8,6345.04072861729,6345.04072861729,6346.64070767537,1.6,6349.53463341366,6349.97751951115,0.442886097487644,66,Longer,Index,78,S,Middle
210,Spatial,4132,2,4,11,400,2.5,1.25,2,r,r,0,800,0,400,S,=,L,0.355468387587193,0.305352456702075,1.56740547606493,1.2089831952526,1.24414647319375,6352.05125799117,6352.42065067535,6352.42065067535,6355.62062549885,3.2,6360.43101994359,6360.43101994359,6363.63084334876,3.2,6368.20157981927,6368.76944313985,0.567863320577999,66,Shorter,Index,78,=,Middle
210,Spatial,4132,2,4,12,1600,6.66666666666667,5,2,m,m,-800,800,-800,800,S,=,L,0.43856515561211,0.226418700231717,1.49913577406782,1.29805925486774,1.78331105420934,6370.18462192897,6370.64110292853,6370.64110292853,6373.04096245595,2.4,6376.98109674348,6376.98109674348,6380.18107862461,3.2,6384.83461493549,6385.38541321805,0.55079828255748,78,Equals to,Middle,77,L,Ring
210,Spatial,4132,2,4,13,1200,5,5,1,m,m,-800,800,-800,400,L,S,=,0.410136841462347,0.480574759169039,1.7325016600264,1.43630354326252,1.57890387593619,6387.33456328644,6387.76129347182,6387.76129347182,6390.96117397966,3.2,6395.93152328121,6395.93152328121,6398.33153518936,2.4,6402.35156608897,6403.45744535467,1.1058792656986,78,Shorter,Middle,77,=,Ring
210,Spatial,4132,2,4,14,1200,5,5,1,r,r,0,800,0,1200,L,S,=,0.249304515022139,0.33649817659675,1.49076504286733,1.07418583012447,1.81597287293031,6405.20127537861,6405.4613565414,6405.4613565414,6407.06148316819,1.6,6410.19142770801,6410.19142770801,6412.59173122477,2.4,6416.23455340576,6416.88143816614,0.646884760386456,66,Longer,Index,78,S,Middle
210,Spatial,4132,2,4,15,800,1.66666666666667,5,1,r,r,0,400,0,800,S,=,L,0.482623178811937,0.231048921375808,1.24807319251609,1.61897558319091,1.74237098802357,6418.88465676801,6419.38156581949,6419.38156581949,6421.78170251945,2.4,6425.4618351773,6425.4618351773,6427.06184439072,1.6,6430.45124971449,6431.04145172963,0.590202015147042,77,Longer,Ring,66,S,Index
210,Spatial,4132,2,4,16,1200,3.33333333333333,7.5,1,l,l,-1600,-800,-1600,-400,S,=,L,0.353831076460056,0.223241471976692,1.53144274944342,1.5018611759127,1.23083710954725,6432.95125131849,6433.32186176533,6433.32186176533,6435.72174503207,2.4,6439.70186466538,6439.70186466538,6441.30208560782,1.6,6444.58458413855,6445.08126512579,0.496680987247601,77,Longer,Ring,66,S,Index
210,Spatial,4132,2,4,17,1600,7.5,20,2,l,l,-1600,-400,-1600,0,S,=,L,0.237376181293905,0.349019220788048,1.17045123775228,1.62119186236654,1.76261237383475,6446.48454314011,6446.74217305832,6446.74217305832,6448.3419872244,1.6,6451.15198676245,6451.15198676245,6451.95219987733,0.8,6454.5514530385,6455.24132167669,0.689868638184635,77,Longer,Ring,66,S,Index
210,Spatial,4132,2,4,18,1200,6.66666666666667,7.5,1,l,l,-1600,0,-1600,-400,L,S,=,0.280048827386115,0.25327685310554,1.06120375141884,1.87229907257394,1.11474111423058,6457.16801788276,6457.46206807922,6457.46206807922,6459.86207357134,2.4,6463.3622593411,6463.3622593411,6464.96214664993,1.6,6468.60123630498,6469.16936428683,0.568127981850012,78,Shorter,Middle,77,=,Ring
210,Spatial,4132,2,4,19,1600,20,20,2,l,l,-1600,0,-1600,0,=,L,S,0.24309514886935,0.278687370410439,1.31572516313581,1.63375458461474,1.78325935373141,6470.45126158414,6470.71217971816,6470.71217971816,6471.51220323933,0.8,6473.66223284289,6473.66223284289,6474.46257042877,0.8,6477.06833425724,6477.67333580992,0.605001552678914,66,Equals to,Index,66,=,Index
210,Spatial,4132,2,4,20,800,7.5,3.33333333333333,1,r,r,0,1200,0,800,=,L,S,0.327034555221288,0.412847045444078,1.19553219009586,1.73520842846839,1.54901800721474,6479.61784131359,6479.96249731168,6479.96249731168,6481.56224988387,1.6,6484.39264373834,6484.39264373834,6486.79247824324,2.4,6491.1012183401,6491.64117673855,0.539958398455383,77,Shorter,Ring,66,=,Index
210,Spatial,4132,2,4,21,800,1.66666666666667,5,1,l,l,-1600,-1200,-1600,-800,S,=,L,0.290866756826563,0.242907987672632,1.56153273753515,1.64888898884788,1.97786789597933,6493.35111664601,6493.65240572926,6493.65240572926,6496.05255205326,2.4,6500.06283088113,6500.06283088113,6501.66293120219,1.6,6505.06819952059,6505.77722482285,0.709025302258851,77,Longer,Ring,78,=,Middle
210,Spatial,4132,2,4,22,800,5,5,1,m,m,-800,400,-800,0,=,L,S,0.436978388190359,0.206824264803283,1.515359073687,1.59038586715511,1.37042037299102,6507.91791618867,6508.37284707519,6508.37284707519,6510.77266714402,2.4,6514.73300904147,6514.73300904147,6516.33283219,1.6,6519.68454365339,6520.37715963598,0.692615982589814,77,Shorter,Ring,77,S,Ring
210,Spatial,4132,2,4,23,1200,10,7.5,1,m,m,-800,0,-800,400,S,=,L,0.352979839553703,0.453218113452912,1.40475199988172,1.68378645762371,1.41901449589311,6521.9178391963,6522.28298190166,6522.28298190166,6523.08314272589,0.8,6525.32317223963,6525.32317223963,6526.92290748854,1.6,6530.38457239721,6530.90525864304,0.520686245826255,77,Longer,Ring,77,L,Ring
210,Spatial,4132,2,4,24,1200,6.66666666666667,7.5,1,r,r,0,1600,0,1200,=,L,S,0.300936106512886,0.243098290989829,1.50681016240963,1.36334489295194,1.86679608088052,6532.48459318515,6532.80327035357,6532.80327035357,6535.20309202641,2.4,6539.15332001365,6539.15332001365,6540.75345818929,1.6,6543.88452138976,6544.44908494568,0.56456355591763,77,Shorter,Ring,66,=,Index
210,Spatial,4132,2,4,25,1200,2.5,5,1,m,m,-800,0,-800,400,L,S,=,0.316102484813741,0.367432394573288,1.62792295071867,1.47357403197348,1.02690773815063,6546.56794031295,6546.90346982797,6546.90346982797,6550.10321303276,3.2,6554.97341098014,6554.97341098014,6557.37342641711,2.4,6561.41788507092,6562.65713886087,1.23925378994863,66,Longer,Index,77,=,Ring
210,Spatial,4132,2,4,26,1600,3.75,5,2,m,m,-800,400,-800,800,S,=,L,0.470831066125232,0.345214099147273,1.94489394614641,1.46077352696698,1.65709357281083,6563.85101880154,6564.33345906187,6564.33345906187,6567.53365331362,3.2,6572.71362172109,6572.71362172109,6575.91369952188,3.2,6580.73457586187,6581.3292062215,0.594630359631083,77,Longer,Ring,78,=,Middle
210,Spatial,4132,2,4,27,1600,7.5,20,2,l,l,-1600,-400,-1600,0,L,S,=,0.33222031781451,0.417216196201364,1.02681694744981,1.80046526531441,1.80056421969463,6583.16789116615,6583.51377358854,6583.51377358854,6585.11370484718,1.6,6587.77377104779,6587.77377104779,6588.57361235368,0.8,6591.35159079069,6593.00928848784,1.65769769715826,66,Longer,Index,78,S,Middle
210,Spatial,4132,2,4,28,400,1.66666666666667,1.25,2,m,m,-800,-400,-800,-400,=,L,S,0.485158932213735,0.288856640766681,1.91054917690007,1.00189016746528,1.992571449011,6594.98462237809,6595.4840959171,6595.4840959171,6597.88409274758,2.4,6602.22426976587,6602.22426976587,6605.42405018363,3.2,6609.80128108888,6610.51318783059,0.711906741707935,66,Equals to,Index,78,L,Middle
210,Spatial,4132,2,4,29,1600,5,5,2,l,l,-1600,-400,-1600,0,L,S,=,0.330505504101575,0.450214957355254,1.23084234619691,1.97274525258295,1.99378002659357,6612.66793030394,6613.01417587367,6613.01417587367,6615.41421184194,2.4,6619.08437398787,6619.08437398787,6622.28451145775,3.2,6627.61790034108,6628.03312692962,0.415226588545011,66,Longer,Index,78,S,Middle
210,Spatial,4132,2,4,30,400,2.5,1.25,2,l,l,-1600,-800,-1600,-1200,S,=,L,0.491762697422748,0.234025571086693,1.58736166262572,1.02219272274539,1.25248446039912,6630.20124073204,6630.70426811053,6630.70426811053,6633.9044463222,3.2,6638.73456974097,6638.73456974097,6641.93466839386,3.2,6646.33456392805,6647.16909320953,0.834529281481991,66,Shorter,Index,78,=,Middle
210,Spatial,4132,2,4,31,1200,10,7.5,1,r,r,0,800,0,1200,=,L,S,0.369681322984182,0.367648317616372,1.30957355429308,1.08485491138431,1.32432029699402,6648.58393291142,6648.96485391981,6648.96485391981,6649.76474527074,0.8,6651.90487140991,6651.90487140991,6653.50479496932,1.6,6656.36817366399,6657.48906836666,1.12089470266801,78,Longer,Middle,78,L,Middle
210,Spatial,4132,2,4,32,400,5,5,2,r,r,0,800,0,400,=,L,S,0.274881532779526,0.217486930116651,1.66670129606516,1.9068104731596,1.16254593150927,6658.98461628286,6659.27471195871,6659.27471195871,6660.87489504657,1.6,6664.18482176266,6664.18482176266,6664.98494697792,0.8,6667.86786505291,6668.86512316213,0.997258109221548,77,Shorter,Ring,66,=,Index
210,Spatial,4132,2,4,33,800,3.75,3.33333333333333,1,r,r,0,1200,0,800,L,S,=,0.324634789298532,0.216422297440881,1.82434552928936,1.1842360514306,1.47048573942432,6670.2012939851,6670.54495902723,6670.54495902723,6673.74515488298,3.2,6678.80483169468,6678.80483169468,6681.20512141697,2.4,6684.96828459716,6685.72903786485,0.760753267684777,78,Shorter,Middle,77,=,Ring
210,Spatial,4132,2,4,34,800,5,5,1,r,r,0,1200,0,800,L,S,=,0.486065159569534,0.435820619061035,1.20840161459965,1.31812148390856,1.41541316627592,6687.36766487274,6687.86512377807,6687.86512377807,6690.26512285416,2.4,6693.90517841699,6693.90517841699,6695.50522612659,1.6,6698.60121384887,6699.12902830496,0.527814456087981,78,Shorter,Middle,66,L,Index
210,Spatial,4132,2,4,35,1200,10,7.5,1,r,r,0,800,0,1200,L,S,=,0.294076876701321,0.328190493736961,1.3041767920569,1.77619252063042,1.81413502479902,6700.70110439139,6701.01549083919,6701.01549083919,6701.81542164871,0.8,6703.95522281592,6703.95522281592,6705.55533276102,1.6,6709.10110349314,6709.76104359308,0.659940099936648,66,Longer,Index,66,L,Index
210,Spatial,4132,2,4,36,1200,5,5,1,m,m,-800,0,-800,400,L,S,=,0.386294438437256,0.321517481481385,1.22872079411633,1.72044356952329,1.86810732875921,6711.73446101491,6712.13545329258,6712.13545329258,6713.73567744303,1.6,6716.61544425881,6716.61544425881,6719.01576798606,2.4,6723.3011813196,6723.80094553046,0.499764210866488,66,Longer,Index,66,L,Index
210,Spatial,4132,2,4,37,1200,3.33333333333333,7.5,1,m,m,-800,0,-800,400,=,L,S,0.235407123756833,0.497366784937125,1.26553267637846,1.09082648689344,1.14240344410125,6725.834554304,6726.08556801121,6726.08556801121,6728.48570727758,2.4,6732.19561930096,6732.19561930096,6733.79583543138,1.6,6736.65150879381,6737.89689566764,1.24538687382756,78,Longer,Middle,77,S,Ring
210,Spatial,4132,2,4,38,1600,5,5,2,l,l,-1600,-400,-1600,0,S,=,L,0.486331139745149,0.286126083854353,1.47902983840934,1.42229202110455,1.95649396747551,6739.20130040113,6739.70597188752,6739.70597188752,6742.10578586112,2.4,6746.02583829293,6746.02583829293,6749.22613038915,3.2,6754.01784683138,6755.50494355176,1.48709672038149,77,Longer,Ring,78,=,Middle
210,Spatial,4132,2,4,39,800,5,5,1,r,r,0,400,0,800,S,=,L,0.349777685022179,0.411772911994133,1.91427305774837,1.59777732047511,1.81940187352038,6757.63458458767,6757.99607400507,6757.99607400507,6758.79602566669,0.8,6761.54629612805,6761.54629612805,6763.14602528173,1.6,6766.50155107545,6766.95293296018,0.45138188472265,77,Longer,Ring,77,L,Ring
210,Spatial,4132,2,4,40,1200,6.66666666666667,7.5,1,l,l,-1600,0,-1600,-400,L,S,=,0.267641385210544,0.401497589518518,1.19131713504517,1.90075483783634,1.40852296148537,6768.9511489828,6769.23602457596,6769.23602457596,6771.63631301505,2.4,6775.27640899887,6775.27640899887,6776.87642430752,1.6,6780.55117843238,6781.1687534807,0.617575048312574,78,Shorter,Middle,78,S,Middle
210,Spatial,4132,2,4,41,800,5,5,1,l,l,-1600,-1200,-1600,-800,L,S,=,0.481839804875709,0.407315925810868,1.71291452621506,1.02310340419406,1.49219785823476,6782.75113756227,6783.24628733809,6783.24628733809,6784.04649243293,0.8,6786.59660101784,6786.59660101784,6788.19621821178,1.6,6790.98451458877,6791.92875350636,0.944238917589246,66,Longer,Index,66,L,Index
210,Spatial,4132,2,4,42,1200,5,5,1,r,r,0,1600,0,1200,=,L,S,0.479231900304425,0.408444139780265,1.07754710108614,1.09285549994861,1.22577677342722,6793.58452543186,6794.07659198407,6794.07659198407,6797.27659856692,3.2,6801.59663213559,6801.59663213559,6803.99672360253,2.4,6807.65113762643,6808.49688662104,0.845748994607675,77,Shorter,Ring,66,=,Index
210,Spatial,4132,2,4,43,1200,10,5,1,m,m,-800,800,-800,400,L,S,=,0.327347359737009,0.225530928918554,1.2237696521537,1.70583848716501,1.15456227185073,6809.90127332548,6810.24694081083,6810.24694081083,6811.84667670134,1.6,6814.70669112458,6814.70669112458,6817.10680216041,2.4,6821.3847988831,6822.10484179351,0.720042910414122,78,Shorter,Middle,77,=,Ring
210,Spatial,4132,2,4,44,1200,20,7.5,1,r,r,0,1600,0,1200,L,S,=,0.240986868563086,0.374193085385453,1.15897493302388,1.56598671206527,1.0474826169014,6823.41769964763,6823.67682450103,6823.67682450103,6824.47687721513,0.8,6826.4768987345,6826.4768987345,6828.07693906567,1.6,6831.40133876899,6832.20079160988,0.799452840889899,78,Shorter,Middle,66,L,Index
210,Spatial,4132,2,4,45,1600,3.75,5,2,r,r,0,1200,0,1600,=,L,S,0.324282189309139,0.450293456419508,1.46171508935998,1.51799110212945,1.55405137518507,6833.41787673008,6833.75734889606,6833.75734889606,6836.95703981019,3.2,6841.65715968731,6841.65715968731,6844.85701838065,3.2,6849.7514561182,6850.32864032758,0.577184209378174,78,Longer,Middle,66,=,Index
210,Spatial,4132,2,4,46,1200,3.33333333333333,7.5,1,m,m,-800,0,-800,400,=,L,S,0.275135166455642,0.492306045643539,1.23643696221637,1.28453518317563,1.52069529048746,6852.05121821178,6852.33743122657,6852.33743122657,6854.73723846334,2.4,6858.41756937654,6858.41756937654,6860.0176064997,1.6,6863.06770388221,6863.960593701,0.892889818785079,78,Longer,Middle,66,=,Index
210,Spatial,4132,2,4,47,800,7.5,3.33333333333333,1,m,m,-800,400,-800,0,=,L,S,0.37821621665351,0.348692946749347,1.25259686061829,1.35633219308031,1.96002417167459,6865.65115687452,6866.04762841686,6866.04762841686,6867.64767356005,1.6,6870.53768613547,6870.53768613547,6872.93734644513,2.4,6876.86788686741,6877.76870112588,0.900814258473474,77,Shorter,Ring,78,L,Middle
210,Spatial,4132,2,4,48,1200,20,7.5,1,r,r,0,1600,0,1200,=,L,S,0.454161137560135,0.468718233634307,1.46992474856636,1.60282543815889,1.31111712898363,6879.90120884437,6880.36769917285,6880.36769917285,6881.16772590203,0.8,6883.48789805697,6883.48789805697,6885.08756818316,1.6,6888.46771357042,6889.07258648168,0.604872911260827,77,Shorter,Ring,78,L,Middle
210,Spatial,4132,2,4,49,800,15,5,1,r,r,0,1200,0,800,=,L,S,0.282700758563761,0.229902829536418,1.92909646243896,1.84678829889954,1.40008046672591,6890.66772114134,6890.96799103809,6890.96799103809,6891.76769889054,0.8,6894.54799733863,6894.54799733863,6896.14775440204,1.6,6899.75106602352,6900.36884542242,0.617779398894527,77,Shorter,Ring,66,=,Index
210,Spatial,4132,2,4,50,1600,15,20,2,l,l,-1600,-400,-1600,0,S,=,L,0.253294254034878,0.283749722520432,1.60156927392126,1.33737720994526,1.3574560667389,6901.93431909231,6902.20785563417,6902.20785563417,6903.00794042844,0.8,6905.44790404954,6905.44790404954,6906.24821500889,0.8,6908.55115661788,6909.48071790252,0.929561284643569,77,Longer,Ring,78,=,Middle
210,Spatial,4132,2,4,51,1200,10,5,1,m,m,-800,800,-800,400,L,S,=,0.382793485214566,0.495956863243349,1.08450339915625,1.96870246164151,1.45482251639052,6911.0344957898,6911.42817796273,6911.42817796273,6913.02828437902,1.6,6915.74800394714,6915.74800394714,6918.14799243678,2.4,6922.6848378284,6923.2966461482,0.611808319795273,78,Shorter,Middle,77,=,Ring
210,Spatial,4132,2,4,52,400,1.25,1.25,2,m,m,-800,-400,-800,-400,=,L,S,0.3754727627167,0.274216762449827,1.49238329635081,1.81602544987952,1.2552680016845,6924.91788314611,6925.30812953453,6925.30812953453,6928.50820990173,3.2,6933.2384254547,6933.2384254547,6936.43845288965,3.2,6941.61781308306,6942.6966131698,1.0788000867451,66,Equals to,Index,77,S,Ring
210,Spatial,4132,2,4,53,800,1.66666666666667,5,1,l,l,-1600,-1200,-1600,-800,S,=,L,0.293993166836655,0.243384059839243,1.31835852721042,1.60936953648841,1.48965089026472,6944.1343619514,6944.44861302095,6944.44861302095,6946.84876030735,2.4,6950.59864548607,6950.59864548607,6952.19845419852,1.6,6955.56811258338,6956.41650273708,0.848390153702894,77,Longer,Ring,66,S,Index
210,Spatial,4132,2,4,54,1600,5,5,2,r,r,0,1600,0,1600,=,L,S,0.367883710886254,0.281218397744371,1.14303081870958,1.10662253865633,1.13208775506703,6958.08436791831,6958.46863135797,6958.46863135797,6961.66851635703,3.2,6966.05882920269,6966.05882920269,6969.25878702371,3.2,6973.73452421282,6974.52047836643,0.785954153610874,66,Equals to,Index,66,=,Index
210,Spatial,4132,2,4,55,800,1.66666666666667,5,1,l,l,-1600,-1200,-1600,-800,L,S,=,0.41278888172568,0.384917998256287,1.81917795291375,1.40362466807858,1.65604792129577,6975.81759994251,6976.24915369987,6976.24915369987,6978.64910882615,2.4,6982.89907292204,6982.89907292204,6984.49906417057,1.6,6987.66771504611,6988.79260116156,1.12488611545268,66,Longer,Index,78,S,Middle
210,Spatial,4132,2,4,56,1600,20,20,2,m,m,-800,800,-800,800,L,S,=,0.428156873984131,0.454651911741193,1.80872488164809,1.20765214276147,1.5805136058633,6990.60115931261,6991.04921253487,6991.04921253487,6991.84909426176,0.8,6994.4893410223,6994.4893410223,6995.28907004766,0.8,6997.46779922443,6998.8805549995,1.41275577506894,77,Equals to,Ring,77,=,Ring
210,Spatial,4132,2,4,57,800,3.75,3.33333333333333,1,r,r,0,1200,0,800,L,S,=,0.210746267520375,0.469900333230351,1.40627418706395,1.23338268767451,1.28984236369525,7000.61781147905,7000.83932555967,7000.83932555967,7004.03911303507,3.2,7008.6895311293,7008.6895311293,7011.08932393,2.4,7014.90157391653,7016.52056305803,1.61898914150879,78,Shorter,Middle,78,S,Middle
210,Spatial,4132,2,4,58,1200,10,7.5,1,l,l,-1600,-800,-1600,-400,=,L,S,0.335658733507994,0.496999505252625,1.54021640741993,1.46095479936717,1.29839896219236,7017.98439781701,7018.33954306312,7018.33954306312,7019.13949504554,0.8,7021.51962500866,7021.51962500866,7023.11964512933,1.6,7026.35105505211,7027.0167063819,0.66565132978576,78,Longer,Middle,78,L,Middle
210,Spatial,4132,2,4,59,1600,15,20,2,m,m,-800,400,-800,800,L,S,=,0.278570704238395,0.417146494395468,1.41269110647308,1.42549129190446,1.42083144545461,7028.48433622311,7028.77983163052,7028.77983163052,7029.5796498387,0.8,7031.82935793496,7031.82935793496,7032.62973722504,0.8,7035.01817565296,7035.47246015003,0.454284497072877,66,Longer,Index,77,=,Ring
210,Spatial,4132,2,4,60,800,3.75,3.33333333333333,1,l,l,-1600,-400,-1600,-800,L,S,=,0.377362374772876,0.201423496700898,1.08085442064554,1.97696020025543,1.35852442184154,7037.06778119538,7037.45971050869,7037.45971050869,7040.6597501341,3.2,7044.97998644934,7044.97998644934,7047.37976738039,2.4,7051.91757485583,7052.96048559088,1.04291073504646,78,Shorter,Middle,66,L,Index
210,Spatial,4132,2,4,61,800,5,5,1,m,m,-800,400,-800,0,S,=,L,0.239265378567088,0.344856642444412,1.06456980112509,1.99983394862188,1.18719846841925,7054.48433846872,7054.7398809313,7054.7398809313,7057.13991818278,2.4,7060.64999137685,7060.64999137685,7062.25020429925,1.6,7066.01775732775,7066.68846866026,0.670711332507381,66,Shorter,Index,66,S,Index
210,Spatial,4132,2,4,62,400,3.33333333333333,1.25,2,r,r,0,800,0,400,S,=,L,0.209627712023861,0.210981660847849,1.81894954947291,1.77928385987475,1.57588534353169,7068.05094809688,7068.28008923416,7068.28008923416,7070.68002864116,2.4,7074.93007357904,7074.93007357904,7078.13017159033,3.2,7083.26780576878,7083.88039171151,0.612585942732949,66,Shorter,Index,78,=,Middle
210,Spatial,4132,2,4,63,800,15,5,1,m,m,-800,400,-800,0,S,=,L,0.295046187332252,0.215267719944424,1.43384124917408,1.6542937083366,1.28361068525182,7085.61784708802,7085.93047907219,7085.93047907219,7086.73050868859,0.8,7089.00058447475,7089.00058447475,7090.6003713727,1.6,7094.01804733234,7094.53646936089,0.518422028543682,66,Shorter,Index,77,L,Ring
210,Spatial,4132,2,4,64,400,1.66666666666667,1.25,2,r,r,0,400,0,400,L,S,=,0.247083177607483,0.271213939009714,1.85909619501852,1.94538502820986,1.74336173993663,7096.00115167754,7096.26044174372,7096.26044174372,7098.66071959636,2.4,7102.96081919882,7102.96081919882,7106.16043247898,3.2,7111.46774950019,7112.00030411986,0.532554619670009,77,Equals to,Ring,66,L,Index
210,Spatial,4132,2,4,65,400,2.5,5,2,r,r,0,400,0,400,S,=,L,0.305614810242079,0.348432082415909,1.35641605439628,1.53479366653168,1.38949336014477,7113.91787416367,7114.24098031818,7114.24098031818,7115.84081822358,1.6,7118.84072008397,7118.84072008397,7119.64098099828,0.8,7122.15148377129,7122.96838982007,0.816906048778037,78,Equals to,Middle,78,=,Middle
210,Spatial,4132,2,4,66,800,3.75,3.33333333333333,1,m,m,-800,400,-800,0,L,S,=,0.323942706032624,0.362312855176483,1.41573455032119,1.33350614977628,1.9352237051608,7124.53439313331,7124.87096653655,7124.87096653655,7128.07075689916,3.2,7132.73122474329,7132.73122474329,7135.13088505296,2.4,7139.03442360945,7141.08037490151,2.04595129206064,78,Shorter,Middle,77,=,Ring
210,Spatial,4132,2,4,67,1600,5,5,2,l,l,-1600,0,-1600,0,=,L,S,0.299195051133041,0.498306861800607,1.42923385769985,1.96033484099778,1.37282460470488,7143.18440442552,7143.50089212342,7143.50089212342,7146.70127596889,3.2,7151.38125688761,7151.38125688761,7154.58132763077,3.2,7159.90094578711,7160.52843809428,0.627492307178727,66,Equals to,Index,66,=,Index
210,Spatial,4132,2,4,68,1600,6.66666666666667,5,2,l,l,-1600,0,-1600,0,S,=,L,0.22332446679262,0.237190786567711,1.18471293333893,1.2959587043768,1.08564794478366,7162.06788032306,7162.31118324441,7162.31118324441,7164.71126155848,2.4,7168.33141266884,7168.33141266884,7171.53142663012,3.2,7176.18438678144,7176.7283420463,0.543955264866781,78,Equals to,Middle,78,=,Middle
210,Spatial,4132,2,4,69,800,1.25,3.33333333333333,1,l,l,-1600,-1200,-1600,-800,S,=,L,0.259545728808518,0.214188773883573,1.98558406898526,1.2832026873045,1.88781713202928,7177.98443438839,7178.26160817813,7178.26160817813,7181.46153776861,3.2,7186.68178794248,7186.68178794248,7189.08194068251,2.4,7192.93451606446,7193.56025904083,0.62574297637093,77,Longer,Ring,78,=,Middle
210,Spatial,4132,2,4,70,1200,5,5,1,m,m,-800,800,-800,400,=,L,S,0.209669977883183,0.217877463788821,1.08229410410028,1.77742399712119,1.46315091603686,7195.61782334871,7195.8418496262,7195.8418496262,7199.04178916153,3.2,7203.36201168231,7203.36201168231,7205.76195108931,2.4,7210.10108071623,7210.67232688907,0.571246172837164,77,Shorter,Ring,66,=,Index
210,Spatial,4132,2,4,71,1200,5,5,1,r,r,0,800,0,1200,S,=,L,0.41323512820224,0.479942591051043,1.29644043560608,1.18489350472314,1.18075424881998,7212.33451484541,7212.76221160583,7212.76221160583,7214.36205111523,1.6,7217.2919563248,7217.2919563248,7219.69215365624,2.4,7223.45136680705,7223.89620979394,0.444842986893491,77,Longer,Ring,78,=,Middle
210,Spatial,4132,2,4,72,800,1.25,3.33333333333333,1,l,l,-1600,-1200,-1600,-800,L,S,=,0.381381821151217,0.414322726337891,1.36335699167072,1.27247204342512,1.99463619922091,7225.25110933173,7225.65230788479,7225.65230788479,7228.85214315961,3.2,7233.46208026968,7233.46208026968,7235.86218392707,2.4,7239.70095650188,7240.44028471778,0.739328215907335,66,Longer,Index,77,=,Ring
210,Spatial,4132,2,4,73,400,10,5,2,m,m,-800,0,-800,-400,S,=,L,0.253542043804134,0.232094304293614,1.93911655448676,1.7555817078993,1.29987061876054,7243.21763497404,7243.48238636568,7243.48238636568,7244.2823168544,0.8,7247.05259506633,7247.05259506633,7247.85244022184,0.8,7250.58446832919,7251.4800891315,0.895620802311896,66,Shorter,Index,66,S,Index
210,Spatial,4132,2,4,74,800,7.5,3.33333333333333,1,m,m,-800,400,-800,0,S,=,L,0.417392322747624,0.233592731571711,1.74628099795151,1.85590483692166,1.4304749661556,7252.9510854641,7253.38276048444,7253.38276048444,7254.98276328183,1.6,7258.3626747791,7258.3626747791,7260.76287980978,2.4,7265.18442206961,7265.70425081291,0.51982874330406,66,Shorter,Index,66,S,Index
210,Spatial,4132,2,4,75,800,2.5,3.33333333333333,1,l,l,-1600,-1200,-1600,-800,=,L,S,0.232969381226765,0.223579253212207,1.77113557319436,1.65417243814323,1.43338033843463,7267.30108475833,7267.5527355774,7267.5527355774,7269.15269314178,1.6,7272.57300574363,7272.57300574363,7274.97281939643,2.4,7279.20134916297,7279.7846411129,0.583291949934392,78,Longer,Middle,78,L,Middle
210,Spatial,4132,2,4,76,800,5,5,1,l,l,-1600,-1200,-1600,-800,S,=,L,0.355315858541498,0.492280598877531,1.72230509757052,1.54517278725866,1.46820129263902,7281.38433821208,7281.75304887219,7281.75304887219,7282.55306565653,0.8,7285.12307227787,7285.12307227787,7286.72298525083,1.6,7290.0343915293,7290.88015046876,0.845758939455663,77,Longer,Ring,78,=,Middle
210,Spatial,4132,2,4,77,800,15,5,1,m,m,-800,400,-800,0,S,=,L,0.326559657847839,0.205699275850122,1.50333361890674,1.52425905375226,1.14901831562537,7292.50097619909,7292.84308439134,7292.84308439134,7293.64315378713,0.8,7295.98322686572,7295.98322686572,7297.58325211922,1.6,7300.86811816532,7301.4481523756,0.580034210276608,66,Shorter,Index,66,S,Index
210,Spatial,4132,2,4,78,1200,10,5,1,l,l,-1600,0,-1600,-400,L,S,=,0.305346161285833,0.473433830738243,1.9862466189908,1.27391594585514,1.05560387777517,7302.76773551324,7303.09311679229,7303.09311679229,7304.69311285285,1.6,7308.32309653047,7308.32309653047,7310.72309464415,2.4,7314.56767565168,7315.1441832906,0.576507638927069,78,Shorter,Middle,66,L,Index
210,Spatial,4132,2,4,79,1600,10,20,2,r,r,0,1600,0,1600,=,L,S,0.472973462088548,0.355149641167001,1.53193458434673,1.28757363208469,1.26086969601435,7316.36777587008,7316.85313991567,7316.85313991567,7318.4535052188,1.6,7321.63355928028,7321.63355928028,7322.4334695585,0.8,7324.70101488776,7325.67216841311,0.971153525351838,66,Equals to,Index,78,L,Middle
210,Spatial,4132,2,4,80,800,7.5,3.33333333333333,1,l,l,-1600,-400,-1600,-800,S,=,L,0.416463979313085,0.472988786342816,1.54125576954203,1.46154340362014,1.55967618997065,7327.10105441051,7327.53356896848,7327.53356896848,7329.13350985117,1.6,7332.30369990684,7332.30369990684,7334.70369962453,2.4,7338.75105062505,7339.31209306324,0.561042438193908,66,Shorter,Index,78,=,Middle
210,Spatial,4132,2,4,81,400,3.33333333333333,1.25,2,m,m,-800,0,-800,-400,=,L,S,0.493209083061777,0.448482968875486,1.94049823366953,1.93594436590398,1.46463127051683,7341.0509942923,7341.56386161648,7341.56386161648,7343.96387865746,2.4,7348.34400060054,7348.34400060054,7351.54379192555,3.2,7356.85137970327,7357.21603994877,0.364660245503728,77,Shorter,Ring,77,S,Ring
210,Spatial,4132,2,4,82,1200,2.5,5,1,m,m,-800,0,-800,400,S,=,L,0.4913767359368,0.393491736015359,1.77081058979139,1.84665514667758,1.95530276263437,7358.85098062615,7359.35389091208,7359.35389091208,7362.55381536973,3.2,7367.57405219826,7367.57405219826,7369.97419563505,2.4,7374.38446460789,7374.84807352258,0.463608914689758,77,Longer,Ring,66,S,Index
210,Spatial,4132,2,4,83,800,2.5,3.33333333333333,1,r,r,0,400,0,800,S,=,L,0.324258914148067,0.243713785170715,1.79901691402605,1.23236678337794,1.5525258187228,7376.98435611281,7377.32415357155,7377.32415357155,7378.92421700043,1.6,7382.36448089178,7382.36448089178,7384.76438918103,2.4,7388.56749086999,7388.93600041319,0.3685095432038,77,Longer,Ring,78,=,Middle
210,Spatial,4132,2,4,84,1200,10,5,1,l,l,-1600,0,-1600,-400,S,=,L,0.307346160756885,0.394272070359128,1.36380942340339,1.22513742488333,1.30398824172168,7390.66755624934,7390.9943968546,7390.9943968546,7392.59450359169,1.6,7395.59435733186,7395.59435733186,7397.99461561559,2.4,7401.78435174991,7402.4079976466,0.623645896691414,66,Shorter,Index,77,L,Ring
210,Spatial,4132,2,4,85,400,2.5,5,2,r,r,0,400,0,400,=,L,S,0.379590288321147,0.441634259038144,1.28814032584927,1.20624035825132,1.4057843883775,7403.88436419701,7404.27468052016,7404.27468052016,7405.87447415495,1.6,7408.80463279772,7408.80463279772,7409.60461076507,0.8,7411.7843498251,7412.57592185531,0.791572030212592,66,Equals to,Index,77,S,Ring
210,Spatial,4132,2,4,86,1200,5,5,1,r,r,0,800,0,1200,=,L,S,0.353637510182275,0.313361271087397,1.11309843586856,1.23308554353135,1.8496953645915,7414.15089189245,7414.52466030966,7414.52466030966,7416.12463872614,1.6,7418.8745129976,7418.8745129976,7421.2745563443,2.4,7425.08437048472,7425.57595265226,0.4915821675404,78,Longer,Middle,66,=,Index
210,Spatial,4132,2,4,87,400,5,5,2,l,l,-1600,-1200,-1600,-1200,S,=,L,0.329344262162364,0.455736152251157,1.33632518671586,1.64123546995282,1.54574781876869,7427.58422740723,7427.92493048872,7427.92493048872,7428.72474035606,0.8,7430.90487942995,7430.90487942995,7431.70482788356,0.8,7434.31805355589,7434.79176322793,0.47370967203824,78,Equals to,Middle,78,=,Middle
210,Spatial,4132,2,4,88,800,1.25,3.33333333333333,1,l,l,-1600,-1200,-1600,-800,=,L,S,0.215455107313568,0.458126702182939,1.51334139527002,1.65921982492447,1.77553739561283,7436.53445087758,7436.76498685997,7436.76498685997,7439.96503386381,3.2,7444.71506629043,7444.71506629043,7447.11499671499,2.4,7451.33435027422,7451.84778351799,0.513433243765576,78,Longer,Middle,66,=,Index
210,Spatial,4132,2,4,89,1200,5,5,1,r,r,0,1600,0,1200,S,=,L,0.422004240258352,0.431429340443202,1.56886953220093,1.47638950752716,1.29582767813307,7453.80110849765,7454.23516418623,7454.23516418623,7457.43509794713,3.2,7462.25530089901,7462.25530089901,7464.65525345888,2.4,7468.70115700284,7469.22392781709,0.522770814245632,66,Shorter,Index,78,=,Middle
210,Spatial,4132,2,4,90,400,5,5,2,r,r,0,800,0,400,L,S,=,0.399228040062818,0.312094134907038,1.85174752582857,1.85319190127409,1.47540388199505,7470.70099628127,7471.11556006816,7471.11556006816,7472.71543005372,1.6,7476.20553367261,7476.20553367261,7477.00534289835,0.8,7479.83440256487,7480.30390556629,0.46950300141998,78,Shorter,Middle,78,S,Middle
210,Spatial,4132,2,4,91,1600,10,20,2,l,l,-1600,0,-1600,0,L,S,=,0.443788302135033,0.313839878002324,1.74368202996001,1.81134083129816,1.65518718793677,7481.95087565989,7482.40569234106,7482.40569234106,7484.00580838139,1.6,7487.39555982435,7487.39555982435,7488.1956815108,0.8,7490.98469648325,7491.49588604103,0.511189557782018,77,Equals to,Ring,78,S,Middle
210,Spatial,4132,2,4,92,800,1.25,3.33333333333333,1,m,m,-800,-400,-800,0,=,L,S,0.266484128220016,0.461117316307917,1.12458877240058,1.60912135685757,1.99262274020862,7493.31758775205,7493.59573421207,7493.59573421207,7496.79571160198,3.2,7501.15596694718,7501.15596694718,7503.55582198338,2.4,7507.73430863418,7508.21585548789,0.481546853707187,78,Longer,Middle,78,L,Middle
210,Spatial,4132,2,4,93,1200,20,7.5,1,m,m,-800,800,-800,400,L,S,=,0.238459720733328,0.249156046909789,1.17950008912641,1.31715650114429,1.66549823789245,7510.38435778098,7510.63598550234,7510.63598550234,7511.43572318933,0.8,7513.46592764257,7513.46592764257,7515.06607897107,1.6,7518.15099422814,7518.77584665943,0.624852431290492,78,Shorter,Middle,77,=,Ring
210,Spatial,4132,2,4,94,1200,20,7.5,1,l,l,-1600,0,-1600,-400,=,L,S,0.468014831523395,0.24102992733328,1.98810634851347,1.94931302500184,1.40235481368214,7520.60082856622,7521.08616406048,7521.08616406048,7521.8859915719,0.8,7524.72613330202,7524.72613330202,7526.32608445036,1.6,7530.03429817605,7530.49580327423,0.46150509817835,77,Shorter,Ring,78,L,Middle
210,Spatial,4132,2,4,95,1200,2.5,5,1,r,r,0,800,0,1200,L,S,=,0.354403554361551,0.207599905330264,1.68205909231663,1.1236975618473,1.06143324446833,7532.06716333161,7532.43638502858,7532.43638502858,7535.63629569176,3.2,7540.56622014942,7540.56622014942,7542.96621441349,2.4,7546.65141223255,7547.02380283281,0.372390600257859,66,Longer,Index,78,S,Middle
210,Spatial,4132,2,4,96,400,10,5,2,l,l,-1600,-800,-1600,-1200,=,L,S,0.411768530676043,0.420348994537816,1.82711832958196,1.498971893087,1.54346154444413,7548.25095374298,7548.676360622,7548.676360622,7549.47642552656,0.8,7552.14657195322,7552.14657195322,7552.94660574004,0.8,7555.40099775696,7555.82379590349,0.422798146536479,77,Shorter,Ring,77,S,Ring
