Subject,Task,SequenceOrder,ListNo,RunNo,TrialNo,Aud_Probe_Dist,Aud_Standard_Vel,Aud_Probe_Vel,Main_Control,Aud_Std_StartCode,Aud_Probe_StartCode,Aud_Std_StartPt,Aud_Std_EndPt,Aud_Probe_StartPt,Aud_Probe_EndPt,RespIndex,RespMiddle,RespRing,ISI_Cross_Std,ISI_Cross_Probe,ISI_Std_Probe,ISI_Probe_Response,ITI,TrialOnset,StdOnset,StdOnsetByStop,StdOffset,StdDur,ProbeOnset,ProbeOnsetByStop,ProbeOffset,ProbeDur,RespWinStart,RespTime,RT,CorrectKC,CorrectResponse,CorrectFinger,SubjRespKC,SubjResponse,SubjRespFinger
212,Temporal,2314,3,2,1,800,5,5,1,r,r,0,400,0,800,L,S,=,0.416218117825737,0.38282284936852,1.47767472208925,1.72944008448688,1.4649929888677,18331.9722978245,18332.3996686505,18332.3996686505,18333.2000319005,0.8,18334.7104198009,18334.7104198009,18336.3103404731,1.6,18338.1890069614,18338.6322180347,0.44321107333235,66,Longer,Index,66,L,Index
212,Temporal,2314,3,2,2,400,3.33333333333333,1.25,2,r,r,0,800,0,400,S,=,L,0.370237801963284,0.339692021527803,1.54495436901093,1.93022558844125,1.23031293898335,18340.255707701,18340.6404468894,18340.6404468894,18343.0404109981,2.4,18344.6205725923,18344.6205725923,18347.820471065,3.2,18349.905700066,18351.0322110412,1.12651097526395,77,Longer,Ring,77,L,Ring
212,Temporal,2314,3,2,3,400,2.5,5,2,m,m,-800,-400,-800,-400,S,=,L,0.352132952944156,0.279866271444989,1.42346450418136,1.54021110415388,1.53127474122625,18352.4390906944,18352.8107982826,18352.8107982826,18354.4105758773,1.6,18355.8605873235,18355.8605873235,18356.6605223034,0.8,18358.3390756809,18358.7602297196,0.421154038634995,66,Shorter,Index,66,S,Index
212,Temporal,2314,3,2,4,800,1.25,3.33333333333333,1,m,m,-800,-400,-800,0,L,S,=,0.20106357598499,0.399976086341873,1.11490122372455,1.97987225483801,1.19532407802263,18360.4391163586,18360.6508431049,18360.6508431049,18363.8504573475,3.2,18365.0008584393,18365.0008584393,18367.4007442724,2.4,18369.5391342593,18369.9201935588,0.381059299521439,78,Shorter,Middle,78,S,Middle
212,Temporal,2314,3,2,5,400,5,5,2,m,m,-800,0,-800,-400,L,S,=,0.208355075800684,0.400440484941073,1.93669842665183,1.74868780248278,1.47153585835571,18371.2558251144,18371.4805982179,18371.4805982179,18373.0805952408,1.6,18375.0409233438,18375.0409233438,18375.8407514969,0.8,18377.7391668527,18378.1119754574,0.372808604668535,78,Shorter,Middle,78,S,Middle
212,Temporal,2314,3,2,6,1200,10,7.5,1,l,l,-1600,-800,-1600,-400,S,=,L,0.459239359246043,0.294286211591172,1.72147719661854,1.64557655784968,1.70810337978677,18379.7392085569,18380.2108150284,18380.2108150284,18381.0108382288,0.8,18382.7609146052,18382.7609146052,18384.3608619039,1.6,18386.1558691284,18386.5601560635,0.404286935165146,77,Longer,Ring,77,L,Ring
212,Temporal,2314,3,2,7,1600,20,20,2,r,r,0,1600,0,1600,=,L,S,0.347845796217063,0.44159829227071,1.63914603550162,1.64335810822199,1.01702100254611,18388.4059210982,18388.7711462496,18388.7711462496,18389.5710590942,0.8,18391.2408500728,18391.2408500728,18392.0408440802,0.8,18393.8221505124,18394.2239432156,0.401792703178216,66,Equals to,Index,66,=,Index
212,Temporal,2314,3,2,8,1200,6.66666666666667,7.5,1,r,r,0,1600,0,1200,S,=,L,0.24269630107366,0.392117888699825,1.36175136088496,1.10948758940149,1.85163895871114,18395.3893132024,18395.6510480971,18395.6510480971,18398.0508755444,2.4,18399.4510062005,18399.4510062005,18401.0510176595,1.6,18402.305975057,18403.3362866323,1.0303115752904,66,Shorter,Index,66,S,Index
212,Temporal,2314,3,2,9,800,15,5,1,m,m,-800,400,-800,0,=,L,S,0.43431076941605,0.379929940213835,1.80367619046408,1.04212342461635,1.90492529724763,18405.3393185277,18405.7913429522,18405.7913429522,18406.5912124887,0.8,18408.4213230754,18408.4213230754,18410.0211128605,1.6,18411.2055667408,18412.0319473424,0.826380601516576,78,Longer,Middle,78,L,Middle
212,Temporal,2314,3,2,10,800,1.25,3.33333333333333,1,m,m,-800,-400,-800,0,L,S,=,0.208760674234573,0.279416253871113,1.75092695588373,1.98634457071513,1.13946765547023,18414.0893913497,18414.3115345221,18414.3115345221,18417.5114089347,3.2,18419.2913885061,18419.2913885061,18421.6912907001,2.4,18423.8227269928,18424.2239034362,0.401176443414442,78,Shorter,Middle,78,S,Middle
212,Temporal,2314,3,2,11,1200,20,7.5,1,r,r,0,1600,0,1200,L,S,=,0.330407466775494,0.471203084371715,1.33005213137037,1.01802651127789,1.84003218729073,18425.5060628283,18425.8514454419,18425.8514454419,18426.6513906875,0.8,18428.0215809357,18428.0215809357,18429.621410821,1.6,18430.7894082238,18431.4480407367,0.658632512851909,66,Longer,Index,66,L,Index
212,Temporal,2314,3,2,12,1200,6.66666666666667,7.5,1,l,l,-1600,0,-1600,-400,S,=,L,0.204113075209385,0.300695673247257,1.78148474879837,1.19488219510652,1.67819385546204,18433.439464749,18433.6616756106,18433.6616756106,18436.0613481107,2.4,18437.8717804101,18437.8717804101,18439.4716683605,1.6,18440.8228027019,18441.2240747442,0.401272042276105,66,Shorter,Index,66,S,Index
212,Temporal,2314,3,2,13,800,15,5,1,m,m,-800,400,-800,0,S,=,L,0.376230558788809,0.291857105992347,1.80746685312855,1.13590841218719,1.35341727736093,18443.0395018979,18443.4319345488,18443.4319345488,18444.2317662306,0.8,18446.0617712736,18446.0617712736,18447.661602763,1.6,18448.9394984332,18449.7760766741,0.836578240927338,77,Longer,Ring,66,S,Index
212,Temporal,2314,3,2,14,400,5,5,2,m,m,-800,-400,-800,-400,=,L,S,0.201335131594621,0.274366444618007,1.92929239724052,1.19505963957695,1.89505817268139,18451.2728776412,18451.4919144923,18451.4919144923,18452.2915873774,0.8,18454.2521393998,18454.2521393998,18455.0515960647,0.8,18456.4062120652,18456.8560390249,0.449826959651546,66,Equals to,Index,66,=,Index
212,Temporal,2314,3,2,15,1200,20,7.5,1,r,r,0,1600,0,1200,=,L,S,0.477424551150577,0.230114502263798,1.07851475831235,1.95495767068428,1.89472156855566,18458.889567598,18459.3818208567,18459.3818208567,18460.181661521,0.8,18461.2820605596,18461.2820605596,18462.8819045603,1.6,18464.9729057434,18465.3760416426,0.403135899232439,78,Longer,Middle,78,L,Middle
212,Temporal,2314,3,2,16,800,5,5,1,l,l,-1600,-400,-1600,-800,S,=,L,0.214390554040839,0.348260051726316,1.41485548496341,1.38426512024613,1.96360275917461,18467.4229277504,18467.6522193436,18467.6522193436,18470.0520891366,2.4,18471.5020232697,18471.5020232697,18473.1018955008,1.6,18474.6396160391,18475.0320047658,0.392388726777426,66,Shorter,Index,66,S,Index
212,Temporal,2314,3,2,17,1200,5,5,1,r,r,0,800,0,1200,=,L,S,0.455121799128571,0.37847033582585,1.17624286662966,1.41718231059321,1.59814014415096,18477.1563670124,18477.6222798981,18477.6222798981,18479.2221386556,1.6,18480.4320590198,18480.4320590198,18482.8320414142,2.4,18484.3896577433,18484.7599814192,0.370323675924737,78,Longer,Middle,78,L,Middle
212,Temporal,2314,3,2,18,800,7.5,3.33333333333333,1,r,r,0,1200,0,800,L,S,=,0.29428431926672,0.217782677023724,1.52955664249047,1.61632416677553,1.15390532299346,18486.5063900459,18486.8122534384,18486.8122534384,18488.4120576596,1.6,18489.9725242847,18489.9725242847,18492.3724194211,2.4,18494.1396991266,18494.6640072219,0.524308095235028,66,Longer,Index,66,L,Index
212,Temporal,2314,3,2,19,1600,7.5,20,2,l,l,-1600,-400,-1600,0,L,S,=,0.295764282069192,0.249892567274768,1.68712994017826,1.07325725133929,1.68824852103091,18495.9730995075,18496.2823438274,18496.2823438274,18497.8821961689,1.6,18499.5925980562,18499.5925980562,18500.3924140188,0.8,18501.6064743704,18501.9678319462,0.361357575773582,78,Shorter,Middle,78,S,Middle
212,Temporal,2314,3,2,20,800,5,5,1,l,l,-1600,-400,-1600,-800,S,=,L,0.220266665309712,0.302892325904005,1.6413955682115,1.57187623367218,1.4576184271797,18503.8064581842,18504.0427252861,18504.0427252861,18506.4425440717,2.4,18508.1126795911,18508.1126795911,18509.712494078,1.6,18511.4231195897,18511.9520007109,0.52888112121218,66,Shorter,Index,66,S,Index
212,Temporal,2314,3,2,21,800,5,5,1,r,r,0,400,0,800,S,=,L,0.202310166970985,0.337063960000313,1.16071557671152,1.79375785514652,1.43526893067266,18513.5565066252,18513.7725949893,18513.7725949893,18514.5723686061,0.8,18515.7626462919,18515.7626462919,18517.3627206281,1.6,18519.3065624145,18519.6959629051,0.38940049053781,77,Longer,Ring,77,L,Ring
212,Temporal,2314,3,2,22,400,5,5,2,r,r,0,800,0,400,S,=,L,0.204553185456616,0.217942874220468,1.72524828533042,1.30759729908322,1.07341434573637,18521.2898457971,18521.5129042164,18521.5129042164,18523.1126872647,1.6,18524.8629532348,18524.8629532348,18525.6627675934,0.8,18527.106520548,18527.4719410931,0.365420545160305,66,Shorter,Index,66,S,Index
212,Temporal,2314,3,2,23,1200,2.5,5,1,r,r,0,800,0,1200,=,L,S,0.404952443310184,0.283005470925394,1.73649072211406,1.65353006523003,1.24984598002178,18528.6899472346,18529.1126773455,18529.1126773455,18532.3126662843,3.2,18534.0729743051,18534.0729743051,18536.472865271,2.4,18538.2733113347,18539.0079443294,0.734632994663116,77,Shorter,Ring,77,S,Ring
212,Temporal,2314,3,2,24,400,3.33333333333333,1.25,2,r,r,0,800,0,400,=,L,S,0.410278444214358,0.230373875794745,1.63316858596265,1.01906031545553,1.04645548165737,18540.40662622,18540.8328735991,18540.8328735991,18543.2327892667,2.4,18544.8932946447,18544.8932946447,18548.0930981601,3.2,18549.2566713889,18549.695992098,0.439320709148888,78,Longer,Middle,78,L,Middle
212,Temporal,2314,3,2,25,1600,20,20,2,l,l,-1600,0,-1600,0,L,S,=,0.41495716911025,0.494204905779523,1.85076000759416,1.90160088984083,1.59601576185036,18557.073357047,18557.5033237991,18557.5033237991,18558.3032485134,0.8,18560.1933679157,18560.1933679157,18560.99328461,0.8,18563.0400248044,18563.5758984368,0.53587363241968,77,Equals to,Ring,77,=,Ring
212,Temporal,2314,3,2,26,800,5,5,1,m,m,-800,-400,-800,0,S,=,L,0.360987806974098,0.315342060138866,1.34350443475042,1.74026302299887,1.13202633533035,18565.3067848918,18565.6834169727,18565.6834169727,18566.4833580479,0.8,18567.8633304974,18567.8633304974,18569.4631963126,1.6,18571.3400589377,18571.8079059615,0.467847023861395,77,Longer,Ring,77,L,Ring
212,Temporal,2314,3,2,27,400,10,5,2,r,r,0,800,0,400,=,L,S,0.393955214716912,0.487268584809109,1.70731242190562,1.24238740529234,1.11292338171076,18573.0901099451,18573.5034851623,18573.5034851623,18574.3033444331,0.8,18576.043546538,18576.043546538,18576.8434625907,0.8,18578.2234257627,18578.7198709608,0.496445198114088,66,Equals to,Index,66,=,Index
212,Temporal,2314,3,2,28,1200,10,5,1,l,l,-1600,0,-1600,-400,S,=,L,0.327498328727249,0.48323848239828,1.92927795037748,1.13329621722018,1.22786544945313,18579.9901934177,18580.3337096079,18580.3337096079,18581.9332469222,1.6,18583.9037733062,18583.9037733062,18586.3033255058,2.4,18587.5901330428,18588.0796652885,0.48953224568686,77,Longer,Ring,77,L,Ring
212,Temporal,2314,3,2,29,1600,10,20,2,m,m,-800,800,-800,800,L,S,=,0.257159635161604,0.427824841044214,1.991047964975,1.38521534057808,1.79830802505772,18589.4568528342,18589.7336724591,18589.7336724591,18591.3335555975,1.6,18593.3638781057,18593.3638781057,18594.1634069509,0.8,18595.6902446834,18596.087934269,0.397689585617627,78,Shorter,Middle,78,S,Middle
212,Temporal,2314,3,2,30,800,7.5,3.33333333333333,1,l,l,-1600,-400,-1600,-800,S,=,L,0.276293327234324,0.320638138772954,1.94077298167363,1.28405717285568,1.31045956807545,18598.0402127941,18598.3336967758,18598.3336967758,18599.9337489766,1.6,18601.9135911166,18601.9135911166,18604.3136264433,2.4,18605.7402168362,18606.3999006157,0.659683779504121,77,Longer,Ring,77,L,Ring
212,Temporal,2314,3,2,31,1200,3.33333333333333,7.5,1,l,l,-1600,-800,-1600,-400,S,=,L,0.218909638373574,0.327585527312595,1.75624903849987,1.47022554079207,1.41565367819095,18607.8569510636,18608.0937051423,18608.0937051423,18610.4936917072,2.4,18612.2738464362,18612.2738464362,18613.8736830583,1.6,18615.490339769,18615.9278340891,0.437494320136466,66,Shorter,Index,66,S,Index
212,Temporal,2314,3,2,32,1200,2.5,5,1,r,r,0,800,0,1200,L,S,=,0.292748453601986,0.299389104469265,1.46933267859075,1.9351591949168,1.51849724273389,18617.5069723007,18617.8140037316,18617.8140037316,18621.0138835978,3.2,18622.5043025646,18622.5043025646,18624.9038416113,2.4,18626.9903191719,18627.9757551027,0.985435930801032,78,Shorter,Middle,78,S,Middle
212,Temporal,2314,3,2,33,800,7.5,3.33333333333333,1,m,m,-800,400,-800,0,L,S,=,0.48158952545054,0.313622801843804,1.43492889318502,1.29128961910788,1.19450503865885,18629.6403670355,18630.1341748984,18630.1341748984,18631.7340391096,1.6,18633.2043694838,18633.2043694838,18635.6042566002,2.4,18637.0404489219,18637.7117620602,0.671313138343976,66,Longer,Index,66,L,Index
212,Temporal,2314,3,2,34,1200,3.33333333333333,7.5,1,m,m,-800,0,-800,400,=,L,S,0.288093067369771,0.476400673501013,1.17903101434481,1.59170336026486,1.10603972297295,18639.0737426504,18639.374016076,18639.374016076,18641.7740966357,2.4,18642.9845803274,18642.9845803274,18644.5840647095,1.6,18646.3237420088,18646.8637568684,0.540014859529037,77,Shorter,Ring,77,S,Ring
212,Temporal,2314,3,2,35,400,10,5,2,r,r,0,800,0,400,=,L,S,0.464731595864438,0.405099333317394,1.39999975204607,1.99198670023041,1.4899979446322,18648.1237896158,18648.6045963547,18648.6045963547,18649.4041434855,0.8,18650.8344378274,18650.8344378274,18651.6342592436,0.8,18653.7738500263,18654.223611186,0.449761159616173,66,Equals to,Index,66,=,Index
212,Temporal,2314,3,2,36,1600,6.66666666666667,5,2,m,m,-800,800,-800,800,S,=,L,0.201058094450134,0.393762074264011,1.42137664777652,1.85795407480857,1.22681420499204,18655.8571852488,18656.0745683679,18656.0745683679,18658.474307274,2.4,18659.9245747198,18659.9245747198,18663.124444962,3.2,18665.1238284328,18665.6077902805,0.483961847712635,77,Longer,Ring,77,L,Ring
212,Temporal,2314,3,2,37,800,3.75,3.33333333333333,1,l,l,-1600,-400,-1600,-800,L,S,=,0.338403424100021,0.474802120863971,1.04929481306951,1.01593420022199,1.45397836890372,18666.9905434121,18667.3447095719,18667.3447095719,18670.5446054783,3.2,18671.6247853581,18671.6247853581,18674.0247571661,2.4,18675.1905683063,18675.655670873,0.465102566668065,78,Shorter,Middle,77,=,Ring
212,Temporal,2314,3,2,38,1200,2.5,5,1,m,m,-800,0,-800,400,=,L,S,0.354318008605542,0.475302306103561,1.56998559042426,1.20718261259726,1.54327671350219,18677.2573062551,18677.6247054785,18677.6247054785,18680.8245763623,3.2,18682.4248830101,18682.4248830101,18684.8246507883,2.4,18686.1739270472,18687.295652305,1.12172525786082,77,Shorter,Ring,77,S,Ring
212,Temporal,2314,3,2,39,1200,5,5,1,r,r,0,800,0,1200,S,=,L,0.21210723966783,0.419845984137105,1.23332334683449,1.74191219176797,1.92472513580909,18688.9906505599,18689.2147130879,18689.2147130879,18690.814735775,1.6,18692.074862543,18692.074862543,18694.4747082759,2.4,18696.3573870988,18696.9917374355,0.63435033670612,77,Longer,Ring,77,L,Ring
212,Temporal,2314,3,2,40,400,1.25,1.25,2,r,r,0,400,0,400,S,=,L,0.340884864321675,0.221479551282753,1.12214694667584,1.06504751352916,1.12174808813266,18699.0740172566,18699.4251556914,18699.4251556914,18702.6248398687,3.2,18703.7750353267,18703.7750353267,18706.9749966765,3.2,18708.1906918149,18709.663704706,1.47301289108873,78,Equals to,Middle,77,L,Ring
212,Temporal,2314,3,2,41,400,2.5,5,2,r,r,0,400,0,400,=,L,S,0.309236947712583,0.332492612913697,1.56775160704624,1.64064959820242,1.6559358302075,18710.9407556544,18711.2654882728,18711.2654882728,18712.8649505196,1.6,18714.4554788155,18714.4554788155,18715.2552912493,0.8,18717.0408095508,18717.5036821601,0.462872609314218,77,Shorter,Ring,77,S,Ring
212,Temporal,2314,3,2,42,400,1.25,1.25,2,r,r,0,400,0,400,=,L,S,0.206755578979695,0.347256065448834,1.65648372320799,1.23860400810254,1.60819230612447,18719.3074565186,18719.5254234965,18719.5254234965,18722.7253027212,3.2,18724.4152519062,18724.4152519062,18727.61529891,3.2,18728.9907859381,18730.3995182202,1.40873228213241,66,Equals to,Index,77,S,Ring
212,Temporal,2314,3,2,43,1200,6.66666666666667,7.5,1,r,r,0,1600,0,1200,L,S,=,0.267019851502506,0.346778351619327,1.05017541866181,1.04775521224774,1.98466489984089,18732.1575138779,18732.435676378,18732.435676378,18734.8355474542,2.4,18735.9257049036,18735.9257049036,18737.5255681524,1.6,18738.7242525341,18739.1276616904,0.403409156308044,78,Shorter,Middle,78,S,Middle
212,Temporal,2314,3,2,44,1200,5,5,1,l,l,-1600,0,-1600,-400,S,=,L,0.384455568354898,0.439959756078995,1.6987396004243,1.05723634103726,1.19924801999861,18741.2575519891,18741.6558623659,18741.6558623659,18744.855430413,3.2,18746.5857072391,18746.5857072391,18748.9856302852,2.4,18750.1908907119,18750.5596337986,0.3687430867285,66,Shorter,Index,78,=,Middle
212,Temporal,2314,3,2,45,1200,10,7.5,1,l,l,-1600,-800,-1600,-400,=,L,S,0.285594798149344,0.268779911591911,1.3256393188695,1.18846020118436,1.12527102640775,18751.9075950407,18752.2058429253,18752.2058429253,18753.0057015545,0.8,18754.3656579126,18754.3656579126,18755.9655391262,1.6,18757.2909198407,18757.7036711245,0.412751283845864,78,Longer,Middle,78,L,Middle
212,Temporal,2314,3,2,46,400,1.66666666666667,1.25,2,l,l,-1600,-1200,-1600,-1200,L,S,=,0.413292243170282,0.391192152998751,1.67628912334127,1.03263929234779,1.26693574134599,18758.9743079669,18759.4059470575,18759.4059470575,18761.8056317481,2.4,18763.5160993997,18763.5160993997,18766.7160119877,3.2,18767.8909816912,18768.3116526027,0.420670911513298,66,Longer,Index,66,L,Index
212,Temporal,2314,3,2,47,1200,6.66666666666667,7.5,1,l,l,-1600,0,-1600,-400,=,L,S,0.485824864284278,0.433166600479,1.54036813160934,1.20959601711778,1.71614344076196,18769.7410249353,18770.246022356,18770.246022356,18772.6459216628,2.4,18774.2160890057,18774.2160890057,18775.816058119,1.6,18777.1577621481,18777.67958342,0.521821271806402,77,Shorter,Ring,66,=,Index
212,Temporal,2314,3,2,48,400,2.5,1.25,2,m,m,-800,0,-800,-400,=,L,S,0.264806500650665,0.470280012363899,1.94130669453697,1.90843397366858,1.63742912224365,18779.5577272751,18779.8362256544,18779.8362256544,18783.0361087286,3.2,18785.0163079207,18785.0163079207,18788.2161188146,3.2,18790.2577393372,18790.6554883369,0.397748999741452,66,Equals to,Index,66,=,Index
212,Temporal,2314,3,2,49,1600,3.75,5,2,l,l,-1600,-400,-1600,0,L,S,=,0.230922846805473,0.232490910324562,1.95468613959405,1.77951203724591,1.95386111939232,18805.7911854644,18806.03637117,18806.03637117,18809.2362738131,3.2,18811.226385452,18811.226385452,18814.4264584408,3.2,18816.3578634232,18816.8795274722,0.521664048923412,77,Equals to,Ring,77,=,Ring
212,Temporal,2314,3,2,50,1600,10,20,2,m,m,-800,800,-800,800,S,=,L,0.373453463702521,0.260301944982989,1.98758133942795,1.15615098482379,1.2964385631644,18818.9912498171,18819.3765667691,18819.3765667691,18820.9763985792,1.6,18822.9966562599,18822.9966562599,18823.7964975658,0.8,18825.0912715675,18825.5275680805,0.436296513013076,66,Shorter,Index,66,S,Index
212,Temporal,2314,3,2,51,800,1.66666666666667,5,1,r,r,0,400,0,800,S,=,L,0.262139505111331,0.215148451109034,1.71687619203879,1.31910958967546,1.64683631651298,18826.9746419213,18827.2566960649,18827.2566960649,18829.6564709007,2.4,18831.406856209,18831.406856209,18833.0067127209,1.6,18834.4746835474,18834.9675114654,0.492827918031253,66,Shorter,Index,78,=,Middle
212,Temporal,2314,3,2,52,800,2.5,3.33333333333333,1,l,l,-1600,-1200,-1600,-800,L,S,=,0.487969911021845,0.201964431377398,1.75488617421211,1.12929058506119,1.92497329991753,18836.7746503905,18837.2769495495,18837.2769495495,18838.8767553747,1.6,18840.6570441988,18840.6570441988,18843.0569329191,2.4,18844.3413228957,18844.7994999987,0.458177102980699,66,Longer,Index,66,L,Index
212,Temporal,2314,3,2,53,800,5,5,1,r,r,0,1200,0,800,S,=,L,0.346736156084919,0.486230795593661,1.37866100528262,1.58377822883359,1.3645412630351,18846.8747237899,18847.2370918827,18847.2370918827,18849.636920934,2.4,18851.0470615605,18851.0470615605,18852.6470627539,1.6,18854.374749454,18854.7915418749,0.416792420870479,66,Shorter,Index,66,S,Index
212,Temporal,2314,3,2,54,800,2.5,3.33333333333333,1,m,m,-800,-400,-800,0,=,L,S,0.277418954925976,0.271799642124533,1.19443418693557,1.21547740800504,1.88935373057941,18856.3080763071,18856.5972208064,18856.5972208064,18858.197047163,1.6,18859.4171603546,18859.4171603546,18861.8170301476,2.4,18863.1747399583,18863.6074560053,0.43271604700567,78,Longer,Middle,78,L,Middle
212,Temporal,2314,3,2,55,800,3.75,3.33333333333333,1,r,r,0,1200,0,800,L,S,=,0.343759655011168,0.321855619961703,1.85003254571615,1.67330186676132,1.91570443462546,18865.6414628935,18865.9974325996,18865.9974325996,18869.1969862107,3.2,18871.077201507,18871.077201507,18873.4770417863,2.4,18875.2915386847,18876.1993573062,0.907818621482875,78,Shorter,Middle,78,S,Middle
212,Temporal,2314,3,2,56,1200,5,5,1,m,m,-800,800,-800,400,L,S,=,0.402291888199309,0.40770322540466,1.6956264612766,1.90136029481519,1.55543357155509,18878.2749086357,18878.6975049724,18878.6975049724,18881.8973781018,3.2,18883.6174184715,18883.6174184715,18886.0173501793,2.4,18888.0581914749,18889.911325321,1.85313384610345,78,Shorter,Middle,77,=,Ring
212,Temporal,2314,3,2,57,1200,5,5,1,r,r,0,1600,0,1200,L,S,=,0.474985958443317,0.312165350168637,1.28268408548811,1.90774011406571,1.14157359617169,18891.6082554427,18892.0977456377,18892.0977456377,18895.2976431481,3.2,18896.6077655531,18896.6077655531,18899.007643687,2.4,18901.0583321807,18901.8873646538,0.829032473146071,78,Shorter,Middle,78,S,Middle
212,Temporal,2314,3,2,58,1600,5,5,2,r,r,0,1200,0,1600,=,L,S,0.368134534791086,0.444370327707098,1.53398020520709,1.70504034186206,1.48165200983515,18903.1749693314,18903.5576698259,18903.5576698259,18905.9576512579,2.4,18907.5277576486,18907.5277576486,18910.7276689533,3.2,18912.5749774156,18913.0713356765,0.496358260897978,78,Longer,Middle,78,L,Middle
212,Temporal,2314,3,2,59,1600,15,20,2,r,r,0,1200,0,1600,L,S,=,0.365414018788422,0.463643338559573,1.66610327464732,1.82495613712828,1.61291946349166,18914.6916254563,18915.0779281225,18915.0779281225,18915.8777578795,0.8,18917.5778078219,18917.5778078219,18918.377690832,0.8,18920.341747382,18920.7913522812,0.449604899142287,77,Equals to,Ring,77,=,Ring
212,Temporal,2314,3,2,60,1200,10,7.5,1,m,m,-800,0,-800,400,=,L,S,0.280695741940706,0.285347888021636,1.75118899375402,1.72297282870574,1.16357934029475,18922.5417311478,18922.8381135714,18922.8381135714,18923.637890717,0.8,18925.4282158173,18925.4282158173,18927.0280479483,1.6,18928.8917474445,18929.2954043254,0.403656880938797,78,Longer,Middle,78,L,Middle
212,Temporal,2314,3,2,61,1600,5,5,2,r,r,0,1200,0,1600,=,L,S,0.233514315501559,0.412672101223859,1.19540740469692,1.59105558977719,1.69440371082593,18930.6084662093,18930.8583016125,18930.8583016125,18933.2578634361,2.4,18934.4880590993,18934.4880590993,18937.6880801183,3.2,18939.4251063136,18939.887322308,0.462215994393773,78,Longer,Middle,78,L,Middle
212,Temporal,2314,3,2,62,800,5,5,1,r,r,0,1200,0,800,=,L,S,0.425475583408782,0.288859560015334,1.52305459476805,1.9108051975363,1.86448946904896,18941.7418317511,18942.1782514263,18942.1782514263,18944.5780965176,2.4,18946.1282971726,18946.1282971726,18947.7280911282,1.6,18949.7918097442,18950.2471718136,0.455362069453258,77,Shorter,Ring,77,S,Ring
212,Temporal,2314,3,2,63,800,3.75,3.33333333333333,1,r,r,0,1200,0,800,L,S,=,0.474583573725319,0.215646445318384,1.84173417121395,1.01560605998315,1.8945103819556,18952.2752028107,18952.7684091708,18952.7684091708,18955.9684173577,3.2,18957.8484761028,18957.8484761028,18960.2482512595,2.4,18961.4086050707,18962.743294927,1.33468985631407,78,Shorter,Middle,78,S,Middle
212,Temporal,2314,3,2,64,1200,3.33333333333333,7.5,1,l,l,-1600,-800,-1600,-400,=,L,S,0.488827300960698,0.236154944932829,1.05651081755259,1.85415629207268,1.09450306822091,18964.7919075886,18965.2984480648,18965.2984480648,18967.6983316523,2.4,18968.7788393913,18968.7788393913,18970.3783253775,1.6,18972.3752479796,18972.9513623158,0.57611433623606,77,Shorter,Ring,77,S,Ring
212,Temporal,2314,3,2,65,1600,6.66666666666667,5,2,m,m,-800,800,-800,800,L,S,=,0.389920222580929,0.322661444928479,1.10755094340898,1.97791606787976,1.07444432357955,18974.2086028066,18974.6184800038,18974.6184800038,18977.0184527742,2.4,18978.1687412646,18978.1687412646,18981.3686313965,3.2,18983.508710775,18984.2551514312,0.746440656119375,66,Longer,Index,66,L,Index
212,Temporal,2314,3,2,66,1200,5,5,1,l,l,-1600,-800,-1600,-400,=,L,S,0.265311044142154,0.311702783826734,1.269923261803,1.47567190143702,1.45959153216135,18985.4753547423,18985.7588787986,18985.7588787986,18987.3587314609,1.6,18988.6587726775,18988.6587726775,18991.0587351822,2.4,18992.6753488396,18993.4872949757,0.811946136138431,78,Longer,Middle,66,=,Index
212,Temporal,2314,3,2,67,1200,20,7.5,1,m,m,-800,800,-800,400,S,=,L,0.225024046813387,0.227434686371219,1.7172976806602,1.9371267574192,1.6062254607765,18995.0920671553,18995.3289912588,18995.3289912588,18996.1288081838,0.8,18997.8789355676,18997.8789355676,18999.4789165505,1.6,19001.558816687,19002.9353706798,1.37655399279174,77,Longer,Ring,78,=,Middle
212,Temporal,2314,3,2,68,1200,5,5,1,m,m,-800,800,-800,400,S,=,L,0.32182941768034,0.459254065747436,1.17332701999393,1.26973899073448,1.03309627070316,19004.6921168154,19005.0289843936,19005.0289843936,19008.2288783752,3.2,19009.4289446784,19009.4289446784,19011.8289716642,2.4,19013.2421025076,19013.6952327608,0.453130253124982,66,Shorter,Index,78,=,Middle
212,Temporal,2314,3,2,69,1200,20,7.5,1,l,l,-1600,0,-1600,-400,L,S,=,0.238384877169911,0.3383132474279,1.11816109927168,1.94556149766997,1.00612911128886,19014.8754744655,19015.1290587554,19015.1290587554,19015.9289048734,0.8,19017.0793787871,19017.0793787871,19018.6792234293,1.6,19020.7755001938,19021.2153194285,0.439819234747119,66,Longer,Index,66,L,Index
212,Temporal,2314,3,2,70,400,5,5,2,r,r,0,400,0,400,S,=,L,0.396001601552838,0.307175861200042,1.53568979474649,1.04917565618364,1.60003786124428,19022.3755190569,19022.7893671355,19022.7893671355,19023.5892437296,0.8,19025.1595182202,19025.1595182202,19025.9593367492,0.8,19027.158538518,19027.5672377576,0.408699239571433,78,Equals to,Middle,78,=,Middle
212,Temporal,2314,3,2,71,800,1.25,3.33333333333333,1,l,l,-1600,-1200,-1600,-800,L,S,=,0.441541227777266,0.339179482155294,1.84558137062928,1.99829231906295,1.30329784400365,19029.3255510087,19029.7794222877,19029.7794222877,19032.9793855624,3.2,19034.8493541367,19034.8493541367,19037.2492605011,2.4,19039.3922977659,19040.5911589661,1.19886120027149,78,Shorter,Middle,78,S,Middle
212,Temporal,2314,3,2,72,800,7.5,3.33333333333333,1,m,m,-800,400,-800,0,=,L,S,0.473294473755402,0.271529997724374,1.37410909672952,1.51503818297205,1.38054254917722,19042.0422800392,19042.5297514301,19042.5297514301,19044.1293044638,1.6,19045.5295881421,19045.5295881421,19047.929626356,2.4,19049.5922756763,19050.0871187915,0.49484311521519,78,Longer,Middle,78,L,Middle
212,Temporal,2314,3,2,73,800,15,5,1,l,l,-1600,-400,-1600,-800,L,S,=,0.38716181242605,0.357101979534315,1.5684116334168,1.60438071683811,1.89398180434313,19082.7424627678,19083.1401325039,19083.1401325039,19083.9399689977,0.8,19085.540042102,19085.540042102,19087.1398941227,1.6,19088.8924567367,19089.3831281487,0.490671411964286,66,Longer,Index,66,L,Index
212,Temporal,2314,3,2,74,1600,7.5,20,2,l,l,-1600,-400,-1600,0,S,=,L,0.292692510633147,0.444313409747877,1.12892711891336,1.93892234644764,1.96196912998088,19091.4258419116,19091.7301978576,19091.7301978576,19093.3299738483,1.6,19094.4903265246,19094.4903265246,19095.2899336454,0.8,19097.3758337632,19097.7991686107,0.423334847517253,66,Shorter,Index,66,S,Index
212,Temporal,2314,3,2,75,1200,5,5,1,r,r,0,800,0,1200,S,=,L,0.466647333310539,0.285636577148009,1.92116632112846,1.26867641027586,1.14559705673471,19099.9258755957,19100.4101530865,19100.4101530865,19102.0101639039,1.6,19103.9605115501,19103.9605115501,19106.3601157195,2.4,19107.7759502962,19108.2549570254,0.479006729241519,77,Longer,Ring,77,L,Ring
212,Temporal,2314,3,2,76,1200,10,5,1,l,l,-1600,0,-1600,-400,S,=,L,0.310924184506997,0.402737355114484,1.7896944384674,1.33678248027394,1.06999960281587,19109.55925012,19109.8803756458,19109.8803756458,19111.4804300922,1.6,19113.3006468386,19113.3006468386,19115.7004483009,2.4,19117.1759233952,19117.9910335969,0.815110201743664,77,Longer,Ring,77,L,Ring
212,Temporal,2314,3,2,77,800,1.66666666666667,5,1,m,m,-800,-400,-800,0,L,S,=,0.237839624874845,0.47174226283101,1.8816708267113,1.72374323624713,1.59628370099655,19119.209311778,19119.460684783,19119.460684783,19121.8605427064,2.4,19123.7707648165,19123.7707648165,19125.3706104212,1.6,19127.2426308678,19127.7110774697,0.468446601938922,78,Shorter,Middle,78,S,Middle
212,Temporal,2314,3,2,78,400,1.66666666666667,1.25,2,l,l,-1600,-1200,-1600,-1200,=,L,S,0.499440574373898,0.400891859684665,1.49814638262676,1.6796454739296,1.65055993501097,19129.4593432166,19129.9706415004,19129.9706415004,19132.3704965366,2.4,19133.9109104989,19133.9109104989,19137.1104968318,3.2,19138.9426891253,19139.3350675865,0.39237846112519,78,Longer,Middle,78,L,Middle
212,Temporal,2314,3,2,79,800,3.75,3.33333333333333,1,l,l,-1600,-400,-1600,-800,=,L,S,0.226760013865635,0.489883371629766,1.41352072175455,1.79758656108344,1.72755249321041,19141.1427355132,19141.3808590937,19141.3808590937,19144.5807973458,3.2,19146.0209874528,19146.0209874528,19148.4208970253,2.4,19150.3761435314,19150.863063937,0.486920405619458,77,Shorter,Ring,66,=,Index
212,Temporal,2314,3,2,80,1600,3.75,5,2,r,r,0,1200,0,1600,S,=,L,0.322853781716925,0.485389211083913,1.40269569494002,1.91880121205528,1.27978470227292,19152.7427854941,19153.0809725291,19153.0809725291,19156.2808488665,3.2,19157.7111271683,19157.7111271683,19160.9109922777,3.2,19162.9761342901,19163.4309756986,0.454841408547509,78,Equals to,Middle,78,=,Middle
212,Temporal,2314,3,2,81,800,2.5,3.33333333333333,1,l,l,-1600,-1200,-1600,-800,=,L,S,0.382965758584463,0.318351672572918,1.58308171635642,1.31894926540245,1.97232025965942,19164.8595033607,19165.2611269758,19165.2611269758,19166.8610466856,1.6,19168.4711785222,19168.4711785222,19170.8711820895,2.4,19172.3429247237,19172.823077308,0.480152584368625,78,Longer,Middle,66,=,Index
212,Temporal,2314,3,2,82,800,15,5,1,l,l,-1600,-400,-1600,-800,S,=,L,0.364344222304695,0.355793592462843,1.2217421502098,1.83453327218157,1.11937390274016,19174.9428963631,19175.3212718113,19175.3212718113,19176.1210637137,0.8,19177.3811805368,19177.3811805368,19178.9811227027,1.6,19180.9595453216,19181.4470064725,0.487461150933086,77,Longer,Ring,77,L,Ring
212,Temporal,2314,3,2,83,800,1.25,3.33333333333333,1,m,m,-800,-400,-800,0,S,=,L,0.285367032456515,0.201880271854107,1.16689377571535,1.94073574315143,1.78656614166432,19182.7262699891,19183.0316415928,19183.0316415928,19186.2311599157,3.2,19187.4216634458,19187.4216634458,19189.8211627131,2.4,19191.9096910319,19193.3588960834,1.44920505154369,66,Shorter,Index,66,S,Index
212,Temporal,2314,3,2,84,800,5,5,1,m,m,-800,-400,-800,0,L,S,=,0.406832452610177,0.365227419122712,1.12030089881928,1.74359140552997,1.70371991304589,19195.293015958,19195.7115182254,19195.7115182254,19196.5113967442,0.8,19197.6615562724,19197.6615562724,19199.261510308,1.6,19201.1596472081,19201.6709570665,0.511309858360619,66,Longer,Index,66,L,Index
212,Temporal,2314,3,2,85,1200,3.33333333333333,7.5,1,l,l,-1600,-800,-1600,-400,L,S,=,0.45641616345386,0.218607118125356,1.60193128665201,1.6234535267556,1.09685440346986,19203.5263618667,19204.0016257965,19204.0016257965,19206.4015831684,2.4,19208.0318683995,19208.0318683995,19209.6317146457,1.6,19211.393023593,19211.7909519208,0.397928327802219,78,Shorter,Middle,78,S,Middle
212,Temporal,2314,3,2,86,1200,10,5,1,l,l,-1600,0,-1600,-400,L,S,=,0.206658540785803,0.439805537123245,1.42933057176945,1.46947915744679,1.52949615666227,19213.0430785143,19213.2617348947,19213.2617348947,19214.861587557,1.6,19216.321707139,19216.321707139,19218.7216693229,2.4,19220.3430654897,19221.0789425226,0.735877032919234,66,Longer,Index,66,L,Index
212,Temporal,2314,3,2,87,1200,10,7.5,1,m,m,-800,0,-800,400,=,L,S,0.289301989497408,0.383706177985053,1.51055146592554,1.47439573782181,1.29915996297791,19222.7427332035,19223.0520195484,19223.0520195484,19223.8518505886,0.8,19225.381708897,19225.381708897,19226.9817286969,1.6,19228.5931753506,19228.9988922723,0.405716921701242,78,Longer,Middle,78,L,Middle
212,Temporal,2314,3,2,88,1600,5,5,2,m,m,-800,800,-800,800,=,L,S,0.456964868842525,0.308665478356375,1.09627505462818,1.21466045604809,1.24562584436936,19230.4598183237,19230.9319079223,19230.9319079223,19234.1317852221,3.2,19235.2520184576,19235.2520184576,19238.4518575821,3.2,19239.8098410364,19240.2548415369,0.445000500450988,66,Equals to,Index,66,=,Index
212,Temporal,2314,3,2,89,1200,2.5,5,1,l,l,-1600,-800,-1600,-400,=,L,S,0.447160553728284,0.257543421911496,1.17134387989283,1.31845345218411,1.47340813577841,19241.659870486,19242.1221243093,19242.1221243093,19245.3219656794,3.2,19246.532177973,19246.532177973,19248.9320596357,2.4,19250.3932780545,19250.8069236672,0.413645612708933,77,Shorter,Ring,66,=,Index
212,Temporal,2314,3,2,90,800,2.5,3.33333333333333,1,l,l,-1600,-1200,-1600,-800,=,L,S,0.426387130443663,0.365333746693545,1.56104662996228,1.95200505189366,1.48832022447091,19252.4265964368,19252.8722805397,19252.8722805397,19254.4722499737,1.6,19256.0724574938,19256.0724574938,19258.4723154172,2.4,19260.5766186363,19261.5668473421,0.990228705835762,78,Longer,Middle,66,=,Index
212,Temporal,2314,3,2,91,1200,10,5,1,l,l,-1600,0,-1600,-400,L,S,=,0.447920177460506,0.452502400705942,1.30590900170556,1.8265217533957,1.1681554008661,19263.2099642884,19263.6722341518,19263.6722341518,19265.2722770493,1.6,19266.6124515012,19266.6124515012,19269.0122754197,2.4,19270.993380326,19271.5108851171,0.517504791096144,66,Longer,Index,77,=,Ring
212,Temporal,2314,3,2,92,1600,5,5,2,m,m,-800,800,-800,800,S,=,L,0.371293407252525,0.272461332837243,1.75413380605782,1.73545230344094,1.08496820948795,19272.826685363,19273.2125941937,19273.2125941937,19276.412391614,3.2,19278.1925700823,19278.1925700823,19281.3924207556,3.2,19283.2766906883,19283.7187991628,0.442108474551787,78,Equals to,Middle,78,=,Middle
212,Temporal,2314,3,2,93,400,2.5,1.25,2,m,m,-800,0,-800,-400,L,S,=,0.225116190409027,0.390337964277483,1.59272634662708,1.32319107122389,1.86141098483415,19284.9600659825,19285.2029146488,19285.2029146488,19288.4024650519,3.2,19290.0226543376,19290.0226543376,19293.2225755873,3.2,19294.6934365929,19295.1588910789,0.465454485958617,77,Equals to,Ring,77,=,Ring
212,Temporal,2314,3,2,94,1600,15,20,2,m,m,-800,400,-800,800,L,S,=,0.393366639121057,0.422666303037043,1.99779788813264,1.59958717637926,1.92031513192234,19297.160127448,19297.5729290721,19297.5729290721,19298.3727591499,0.8,19300.4030713925,19300.4030713925,19301.2029021119,0.8,19302.9430737664,19303.5027604973,0.559686730877729,77,Equals to,Ring,77,=,Ring
212,Temporal,2314,3,2,95,800,1.66666666666667,5,1,m,m,-800,-400,-800,0,=,L,S,0.284901251654134,0.338344857669123,1.40368775763733,1.28720229956931,1.51213437625425,19305.5768233076,19305.872971867,19305.872971867,19308.2727855198,2.4,19309.7129903837,19309.7129903837,19311.3128051913,1.6,19312.7435604246,19314.0469409648,1.30338054025196,77,Shorter,Ring,66,=,Index
212,Temporal,2314,3,2,96,800,1.66666666666667,5,1,m,m,-800,-400,-800,0,S,=,L,0.480304994581755,0.454785773786024,1.96231304072413,1.76465572940474,1.30594719782188,19315.7101968695,19316.2032293551,19316.2032293551,19318.6030523112,2.4,19320.5831607164,19320.5831607164,19322.1830554037,1.6,19324.0935422008,19324.5186173967,0.425075195882528,66,Shorter,Index,66,S,Index
