Subject,Task,SequenceOrder,ListNo,RunNo,TrialNo,Aud_Probe_Dist,Aud_Standard_Vel,Aud_Probe_Vel,Main_Control,Aud_Std_StartCode,Aud_Probe_StartCode,Aud_Std_StartPt,Aud_Std_EndPt,Aud_Probe_StartPt,Aud_Probe_EndPt,RespIndex,RespMiddle,RespRing,ISI_Cross_Std,ISI_Cross_Probe,ISI_Std_Probe,ISI_Probe_Response,ITI,TrialOnset,StdOnset,StdOnsetByStop,StdOffset,StdDur,ProbeOnset,ProbeOnsetByStop,ProbeOffset,ProbeDur,RespWinStart,RespTime,RT,CorrectKC,CorrectResponse,CorrectFinger,SubjRespKC,SubjResponse,SubjRespFinger
213,Temporal,4132,4,1,1,800,5,5,1,m,m,-800,-400,-800,0,S,=,L,0.344759445601921,0.25551906822759,1.8407962678376,1.69312954319543,1.00216338670451,973.933512790061,974.289514600669,974.289514600669,975.090397146657,0.8,976.96058684339,976.96058684339,978.560593984446,1.6,980.400238964892,981.303692176213,0.903453211320425,77,Longer,Ring,77,L,Ring
213,Temporal,4132,4,1,2,400,5,5,2,l,l,-1600,-800,-1600,-1200,L,S,=,0.367724693503873,0.237680221183006,1.76230935120117,1.45358215782537,1.0429933259283,982.450300367062,982.830726450074,982.830726450074,984.43070086931,1.6,986.230828978444,986.230828978444,987.030637158001,0.8,988.633617628207,989.135636115394,0.502018487186888,78,Shorter,Middle,78,S,Middle
213,Temporal,4132,4,1,3,1600,10,20,2,l,l,-1600,0,-1600,0,L,S,=,0.227585152440157,0.395628907400563,1.65030909849897,1.76451727466009,1.64198375504823,990.333641624209,990.581052866271,990.581052866271,992.180905701488,1.6,993.860917141294,993.860917141294,994.660866794603,0.8,996.583655899905,997.063820381588,0.480164481683232,78,Shorter,Middle,77,=,Ring
213,Temporal,4132,4,1,4,800,15,5,1,r,r,0,1200,0,800,L,S,=,0.433736782026248,0.30312908982138,1.97065203394564,1.06180019570127,1.34787586389924,998.867068567612,999.310995834063,999.310995834063,1000.11099745732,0.8,1002.12110373266,1002.12110373266,1003.7210335604,1.6,1004.93372804831,1005.41547119742,0.481743149109434,66,Longer,Index,66,L,Index
213,Temporal,4132,4,1,5,1200,5,5,1,m,m,-800,800,-800,400,=,L,S,0.311041518058148,0.441345621140174,1.3547486710729,1.30673877550474,1.45212048563304,1006.91712300774,1007.24117613129,1007.24117613129,1010.44115452848,3.2,1011.82146745815,1011.82146745815,1014.22106082858,2.4,1015.66711226087,1016.18368842924,0.516576168377583,77,Shorter,Ring,66,=,Index
213,Temporal,4132,4,1,6,800,3.75,3.33333333333333,1,m,m,-800,400,-800,0,=,L,S,0.473354490671358,0.202122539693605,1.58839458457012,1.39198716552243,1.35694756973631,1017.78382329447,1018.27121155427,1018.27121155427,1021.4711527384,3.2,1023.09147765324,1023.09147765324,1025.49133793107,2.4,1027.01718473007,1027.61558405562,0.598399325545415,77,Shorter,Ring,77,S,Ring
213,Temporal,4132,4,1,7,1200,5,5,1,l,l,-1600,-800,-1600,-400,=,L,S,0.48691901058844,0.331121796213924,1.58647939507642,1.65557916531762,1.07968346941493,1029.1172753246,1029.62148292081,1029.62148292081,1031.22132292394,1.6,1032.8315913327,1032.8315913327,1035.23151737497,2.4,1037.0339312444,1037.52773270507,0.493801460676423,78,Longer,Middle,78,L,Middle
213,Temporal,4132,4,1,8,1200,6.66666666666667,7.5,1,m,m,-800,800,-800,400,S,=,L,0.312567616875768,0.293186685156437,1.336588725202,1.50557198867726,1.83740868835417,1038.78398497876,1039.11183736229,1039.11183736229,1041.51139319887,2.4,1042.88166566256,1042.88166566256,1044.48161987126,1.6,1046.13399232513,1046.59965783242,0.465665507287667,66,Shorter,Index,78,=,Middle
213,Temporal,4132,4,1,9,800,7.5,3.33333333333333,1,l,l,-1600,-400,-1600,-800,L,S,=,0.233094440105647,0.297409043111706,1.59979252443426,1.65675009726474,1.68279907289857,1048.58404631613,1048.83175718741,1048.83175718741,1050.43177299013,1.6,1052.06185638586,1052.06185638586,1054.46170351079,2.4,1056.26737576776,1056.87152290559,0.604147137835071,66,Longer,Index,66,L,Index
213,Temporal,4132,4,1,10,1600,15,20,2,m,m,-800,400,-800,800,L,S,=,0.27222901270169,0.412970272983506,1.30488326559872,1.64760659964862,1.71508667157705,1058.70078622193,1058.99184708901,1058.99184708901,1059.79172809066,0.8,1061.12208602887,1061.12208602887,1061.92192083501,0.8,1063.71742430513,1064.09556535927,0.378141054143043,77,Equals to,Ring,77,=,Ring
213,Temporal,4132,4,1,11,400,2.5,1.25,2,r,r,0,800,0,400,L,S,=,0.377677638187984,0.290173451331787,1.35704438330874,1.64742049282427,1.82882228511249,1065.9841482029,1066.37209228452,1066.37209228452,1069.57179447104,3.2,1070.95212440323,1070.95212440323,1074.1520270911,3.2,1075.95083771068,1076.49570734631,0.544869635626583,77,Equals to,Ring,66,L,Index
213,Temporal,4132,4,1,12,1600,5,5,2,l,l,-1600,0,-1600,0,S,=,L,0.36321892284016,0.457136582832618,1.02251941383392,1.46951576066282,1.69834027588809,1078.48423546109,1078.86231840513,1078.86231840513,1082.06227081733,3.2,1083.1222230114,1083.1222230114,1086.32209105264,3.2,1087.93425673027,1088.33568930439,0.401432574122737,78,Equals to,Middle,78,=,Middle
213,Temporal,4132,4,1,13,800,15,5,1,m,m,-800,400,-800,0,=,L,S,0.437272767136332,0.23688466626454,1.42208397178599,1.62280182014708,1.24827373025549,1090.18432265511,1090.63224005882,1090.63224005882,1091.43214415822,0.8,1092.89246450485,1092.89246450485,1094.49247709954,1.6,1096.2509811734,1096.93576835004,0.684787176639475,78,Longer,Middle,78,L,Middle
213,Temporal,4132,4,1,14,1200,10,7.5,1,r,r,0,800,0,1200,S,=,L,0.276095201341561,0.434887075663569,1.47151125918071,1.79556818913439,1.44941072202366,1098.33440705816,1098.62243313681,1098.62243313681,1099.42234653948,0.8,1100.92256184264,1100.92256184264,1102.52243168037,1.6,1104.46769361854,1104.95974638664,0.492052768105623,77,Longer,Ring,77,L,Ring
213,Temporal,4132,4,1,15,1200,10,5,1,r,r,0,1600,0,1200,L,S,=,0.448298672180322,0.340187007796616,1.78091483479552,1.71402837595322,1.15155945069475,1106.56778292986,1107.03267622144,1107.03267622144,1108.632372826,1.6,1110.44264566182,1110.44264566182,1112.84253032062,2.4,1114.70112530981,1117.4956909854,2.79456567558054,66,Longer,Index,66,L,Index
213,Temporal,4132,4,1,16,1200,10,5,1,m,m,-800,800,-800,400,S,=,L,0.421517281187816,0.485627330334392,1.69316284002964,1.6430193382675,1.98758739085066,1118.81786200759,1119.2529729891,1119.2529729891,1120.85285148849,1.6,1122.57288235607,1122.57288235607,1124.97280615273,2.4,1126.75117557951,1127.24784501149,0.496669431981218,77,Longer,Ring,77,L,Ring
213,Temporal,4132,4,1,17,1200,3.33333333333333,7.5,1,m,m,-800,0,-800,400,S,=,L,0.334132734546457,0.215885038665549,1.90106680180439,1.20321095272086,1.58474352697688,1129.40127982379,1129.75305543525,1129.75305543525,1132.15296158779,2.4,1134.083003985,1134.083003985,1135.68288857964,1.6,1137.03464536098,1137.55986296615,0.525217605168109,66,Shorter,Index,78,=,Middle
213,Temporal,4132,4,1,18,800,3.75,3.33333333333333,1,l,l,-1600,-400,-1600,-800,=,L,S,0.452854015436299,0.347197475872665,1.3583711190796,1.30096527309474,1.74491073295816,1139.36796713446,1139.83330345382,1139.83330345382,1143.0329106829,3.2,1144.42320376776,1144.42320376776,1146.82313943409,2.4,1148.26799972796,1148.97563668001,0.707636952045959,77,Shorter,Ring,66,=,Index
213,Temporal,4132,4,1,19,1200,10,7.5,1,r,r,0,800,0,1200,L,S,=,0.336999131146142,0.233416358921576,1.02003641691616,1.26499130722208,1.97142620928183,1150.86807909441,1151.22350057392,1151.22350057392,1152.02307168068,0.8,1153.07334848161,1153.07334848161,1154.6732856878,1.6,1156.08477279847,1156.73580338164,0.651030583168676,66,Longer,Index,66,L,Index
213,Temporal,4132,4,1,20,800,7.5,3.33333333333333,1,m,m,-800,400,-800,0,S,=,L,0.494898980387555,0.248593934650393,1.50166150964678,1.41010752479209,1.90974769870231,1158.85146090095,1159.36352365884,1159.36352365884,1160.96319427843,1.6,1162.5037308842,1162.5037308842,1164.90322223955,2.4,1166.46813119268,1166.98376644833,0.515635255643929,77,Longer,Ring,77,L,Ring
213,Temporal,4132,4,1,21,1200,20,7.5,1,l,l,-1600,0,-1600,-400,S,=,L,0.292125382506377,0.299244675194111,1.41715850256803,1.63782530645827,1.44565337443158,1169.03485483382,1169.34353190987,1169.34353190987,1170.1435296835,0.8,1171.58372065703,1171.58372065703,1173.18363187824,1.6,1174.96822542248,NaN,NaN,77,Longer,Ring,999,Missed,Missed
213,Temporal,4132,4,1,22,400,5,5,2,m,m,-800,0,-800,-400,=,L,S,0.339934054644422,0.447211948721031,1.33311551118359,1.22320210123992,1.57609609028058,1179.46829448098,1179.82366944417,1179.82366944417,1181.42361563282,1.6,1182.78383159042,1182.78383159042,1183.58363976997,0.8,1184.95156400677,1185.50365169098,0.552087684212438,77,Shorter,Ring,77,S,Ring
213,Temporal,4132,4,1,23,800,1.66666666666667,5,1,m,m,-800,-400,-800,0,=,L,S,0.30625575882871,0.39318041522443,1.84127109074699,1.78170149723203,1.76722119217456,1187.25161090804,1187.57400131401,1187.57400131401,1189.97384330611,2.4,1191.84403589006,1191.84403589006,1193.44393780801,1.6,1195.36832194165,1196.01577833341,0.647456391758396,77,Shorter,Ring,66,=,Index
213,Temporal,4132,4,1,24,1200,5,5,1,m,m,-800,0,-800,400,S,=,L,0.215312545280088,0.312325899372748,1.73484543932854,1.14161323837195,1.30911945824675,1197.9350487908,1198.1642067108,1198.1642067108,1199.76400918007,1.6,1201.53414870335,1201.53414870335,1203.93407763284,2.4,1205.21837516273,1205.65576805491,0.437392892178877,77,Longer,Ring,77,L,Ring
213,Temporal,4132,4,1,25,1200,10,5,1,r,r,0,1600,0,1200,S,=,L,0.203857694055763,0.376229544882225,1.45623375142125,1.2889070811566,1.65988199281157,1220.33515292318,1220.55432330955,1220.55432330955,1222.15418512723,1.6,1223.64421271621,1223.64421271621,1226.04420291891,2.4,1227.4685196841,1227.98374976662,0.515230082516837,77,Longer,Ring,77,L,Ring
213,Temporal,4132,4,1,26,400,5,5,2,l,l,-1600,-1200,-1600,-1200,=,L,S,0.415288976549183,0.380687972073638,1.30707955752006,1.55311001191328,1.33915350086645,1229.7852245583,1230.21460408843,1230.21460408843,1231.014443065,0.8,1232.354455865,1232.354455865,1233.15445331783,0.8,1234.85193248013,1235.431602734,0.579670253876429,66,Equals to,Index,77,S,Ring
213,Temporal,4132,4,1,27,800,3.75,3.33333333333333,1,r,r,0,1200,0,800,=,L,S,0.270105187035042,0.270165661873998,1.87900900792124,1.99734739423489,1.44973940229305,1236.91866093329,1237.2045857578,1237.2045857578,1240.40460714247,3.2,1242.31477263789,1242.31477263789,1244.71444620886,2.4,1246.86870980244,1247.28778423873,0.419074436297024,77,Shorter,Ring,66,=,Index
213,Temporal,4132,4,1,28,1600,6.66666666666667,5,2,l,l,-1600,0,-1600,0,S,=,L,0.363058546297102,0.308633465988881,1.25883271036244,1.90147408324415,1.38043184987749,1248.90201130122,1249.28471475876,1249.28471475876,1251.68468443012,2.4,1252.97499246436,1252.97499246436,1256.17484125747,3.2,1258.21871040098,1258.67985997627,0.461149575290165,77,Longer,Ring,77,L,Ring
213,Temporal,4132,4,1,29,1200,20,7.5,1,m,m,-800,800,-800,400,S,=,L,0.27137508378011,0.305329068465174,1.99305363168944,1.77619293490443,1.1965753526512,1260.21875050125,1260.50493164668,1260.50493164668,1261.30486943031,0.8,1263.32501520923,1263.32501520923,1264.92491616477,1.6,1266.83550090748,1267.43980500362,0.604304096134001,77,Longer,Ring,77,L,Ring
213,Temporal,4132,4,1,30,1200,10,7.5,1,r,r,0,800,0,1200,L,S,=,0.45991048677187,0.350208444815475,1.24989025069415,1.93239408512224,1.34431850103528,1268.80212794488,1269.27494761622,1269.27494761622,1270.07483118428,0.8,1271.35505127381,1271.35505127381,1272.95494132208,1.6,1275.0354916261,1275.63979980662,0.604308180519183,66,Longer,Index,66,L,Index
213,Temporal,4132,4,1,31,1600,3.75,5,2,l,l,-1600,-400,-1600,0,=,L,S,0.22870214319475,0.279658357947085,1.26913435979149,1.77142794759469,1.66118004234101,1277.13555014042,1277.37537601542,1277.37537601542,1280.57527196645,3.2,1281.86499485754,1281.86499485754,1285.06506949537,3.2,1286.98558090534,1287.48779315703,0.502212251691162,66,Equals to,Index,66,=,Index
213,Temporal,4132,4,1,32,800,15,5,1,m,m,-800,400,-800,0,L,S,=,0.225125581440357,0.359778525629177,1.62889671477099,1.39861108218847,1.93989961388704,1289.28566726528,1289.52547228815,1289.52547228815,1290.32532666321,0.8,1291.97561802857,1291.97561802857,1293.57515134483,1.6,1295.11898808733,1296.11983917546,1.00085108812891,66,Longer,Index,78,S,Middle
213,Temporal,4132,4,1,33,1600,7.5,20,2,m,m,-800,400,-800,800,L,S,=,0.330022572621346,0.356352886626471,1.51416475312023,1.90541318485437,1.4142598452161,1298.20237772144,1298.54560711488,1298.54560711488,1300.1452530327,1.6,1301.68537002925,1301.68537002925,1302.48535368759,0.8,1304.53575161359,1305.04782743154,0.51207581794597,78,Shorter,Middle,78,S,Middle
213,Temporal,4132,4,1,34,1200,5,5,1,m,m,-800,800,-800,400,=,L,S,0.407620363898964,0.234630987117212,1.62001507338123,1.66227929868064,1.44773368014687,1306.63577598514,1307.05567003701,1307.05567003701,1310.25550920606,3.2,1311.90562990466,1311.90562990466,1314.30563037304,2.4,1316.11913629793,1316.62375681143,0.50462051350155,77,Shorter,Ring,66,=,Index
213,Temporal,4132,4,1,35,800,1.66666666666667,5,1,r,r,0,400,0,800,=,L,S,0.333450422340993,0.291982661923677,1.71271741619502,1.558260877636,1.53974572609005,1318.21918454658,1318.56598895927,1318.56598895927,1320.96556468558,2.4,1322.71576442984,1322.71576442984,1324.31582033283,1.6,1326.01923370444,1326.45589772314,0.436664018696092,77,Shorter,Ring,66,=,Index
213,Temporal,4132,4,1,36,800,15,5,1,l,l,-1600,-400,-1600,-800,L,S,=,0.357930455152931,0.360985250978166,1.62324053318294,1.80192367130186,1.49457943163577,1328.13589692755,1328.50602782766,1328.50602782766,1329.30592839824,0.8,1330.95595125219,1330.95595125219,1332.55578323526,1.6,1334.50255935963,1335.42359647451,0.921037114884939,66,Longer,Index,66,L,Index
213,Temporal,4132,4,1,37,1600,3.75,5,2,m,m,-800,400,-800,800,=,L,S,0.431004053772994,0.462970933982541,1.8915051807296,1.18557534275425,1.01541711448084,1337.06927850953,1337.5162989504,1337.5162989504,1340.71583239499,3.2,1342.64594472707,1342.64594472707,1345.84598600148,3.2,1347.18604441128,1347.66388659515,0.477842183874372,66,Equals to,Index,78,L,Middle
213,Temporal,4132,4,1,38,800,1.66666666666667,5,1,l,l,-1600,-1200,-1600,-800,=,L,S,0.23469129481455,0.225605078279089,1.25159947297315,1.20649620915278,1.77862124350482,1348.83606202799,1349.08645517464,1349.08645517464,1351.48626412412,2.4,1352.76650217857,1352.76650217857,1354.36603774045,1.6,1355.71937638627,1356.0880682128,0.368691826538452,77,Shorter,Ring,66,=,Index
213,Temporal,4132,4,1,39,1600,5,5,2,l,l,-1600,-400,-1600,0,L,S,=,0.267898417892126,0.209722335001487,1.20646124463663,1.04574433811227,1.31059341790696,1358.01940371861,1358.30662522544,1358.30662522544,1360.70613230009,2.4,1361.93626009484,1361.93626009484,1365.13626351459,3.2,1366.33616632941,1366.84787048319,0.511704153772598,66,Longer,Index,77,=,Ring
213,Temporal,4132,4,1,40,400,3.33333333333333,1.25,2,r,r,0,800,0,400,L,S,=,0.305631810103288,0.49923063928465,1.9242520305109,1.51850587035648,1.95928279976868,1368.31948141689,1368.63666744942,1368.63666744942,1371.03656622351,2.4,1372.99661581311,1372.99661581311,1376.19646973905,3.2,1377.86954163146,1378.27976129753,0.410219666070589,66,Longer,Index,66,L,Index
213,Temporal,4132,4,1,41,800,5,5,1,l,l,-1600,-400,-1600,-800,S,=,L,0.429544373402082,0.406390188011879,1.85629819064711,1.79883687542047,1.39097647712071,1380.38631284755,1380.82656436286,1380.82656436286,1383.22655552797,2.4,1385.10682482855,1385.10682482855,1386.70658815996,1.6,1388.65292350216,1389.15972482874,0.506801326581126,66,Shorter,Index,78,=,Middle
213,Temporal,4132,4,1,42,400,10,5,2,r,r,0,800,0,400,S,=,L,0.48618707590602,0.353547691973737,1.18478660304,1.91793696988952,1.85519324989862,1390.70299879443,1391.2068304105,1391.2068304105,1392.00667708632,0.8,1393.21701106703,1393.21701106703,1394.01685870526,0.8,1396.08629770569,1396.69585132231,0.609553616627181,78,Equals to,Middle,78,=,Middle
213,Temporal,4132,4,1,43,1600,6.66666666666667,5,2,m,m,-800,800,-800,800,=,L,S,0.260974562457287,0.393964526723583,1.29846717251376,1.09052623165259,1.22675925314058,1398.70302574181,1398.97724032509,1398.97724032509,1401.37674643733,2.4,1402.69719768407,1402.69719768407,1405.89715137948,3.2,1407.13643909418,1407.96782418502,0.831385090842559,78,Longer,Middle,78,L,Middle
213,Temporal,4132,4,1,44,1600,10,20,2,r,r,0,1600,0,1600,S,=,L,0.456138537771797,0.291083732878626,1.11885209934447,1.20488591552164,1.90657522486416,1409.33648778097,1409.80706279959,1409.80706279959,1411.40707507348,1.6,1412.55725383728,1412.55725383728,1413.35711077876,0.8,1414.70268697473,1415.19965411111,0.496967136385365,66,Shorter,Index,66,S,Index
213,Temporal,4132,4,1,45,400,1.66666666666667,1.25,2,r,r,0,400,0,400,L,S,=,0.238255256210532,0.471363529161532,1.50410054821515,1.68248682949142,1.31768767839364,1417.25317578098,1417.50738867042,1417.50738867042,1419.90733396082,2.4,1421.4374130578,1421.4374130578,1424.63733210659,3.2,1426.46989680173,1426.97586220392,0.50596540219658,66,Longer,Index,66,L,Index
213,Temporal,4132,4,1,46,1200,3.33333333333333,7.5,1,l,l,-1600,-800,-1600,-400,S,=,L,0.376960165571768,0.322604713031255,1.1256244028772,1.30340222681969,1.28179328928705,1428.45315711029,1428.84755027772,1428.84755027772,1431.24742114202,2.4,1432.40753386548,1432.40753386548,1434.00747075086,1.6,1435.45321998751,1436.07184043557,0.618620448057982,66,Shorter,Index,78,=,Middle
213,Temporal,4132,4,1,47,1200,10,7.5,1,l,l,-1600,-800,-1600,-400,=,L,S,0.461762138330454,0.462897390881615,1.90344529348869,1.0505834715538,1.55678606589143,1437.5033132447,1437.9774356936,1437.9774356936,1438.77730610878,0.8,1440.70780725308,1440.70780725308,1442.30765431386,1.6,1443.50333956146,1444.26393067337,0.760591111913982,78,Longer,Middle,78,L,Middle
213,Temporal,4132,4,1,48,800,1.25,3.33333333333333,1,m,m,-800,-400,-800,0,=,L,S,0.436651563516494,0.342483757732219,1.37186431219065,1.39228125670707,1.09695304958088,1445.97003354949,1446.41756855703,1446.41756855703,1449.6176200971,3.2,1451.02772592332,1451.02772592332,1453.4275650282,2.4,1454.95334894998,1456.43181895466,1.47847000467732,77,Shorter,Ring,66,=,Index
213,Temporal,4132,4,1,49,1200,2.5,5,1,l,l,-1600,-800,-1600,-400,S,=,L,0.255691717087035,0.256314986017078,1.41314625280419,1.57792947298383,1.6821495325752,1501.07041185505,1501.33844495003,1501.33844495003,1504.53839800384,3.2,1505.97885011032,1505.97885011032,1508.3783761123,2.4,1510.10330182415,1510.71194115462,0.608639330472897,66,Shorter,Index,78,=,Middle
213,Temporal,4132,4,1,50,1200,6.66666666666667,7.5,1,r,r,0,1600,0,1200,S,=,L,0.304663116273825,0.35022727662921,1.95050905798668,1.8849563513594,1.11687811896036,1512.55380718379,1512.87886121008,1512.87886121008,1515.27868940769,2.4,1517.24895205483,1517.24895205483,1518.84878500032,1.6,1520.88712511862,1521.25592184746,0.3687967288447,66,Shorter,Index,78,=,Middle
213,Temporal,4132,4,1,51,800,1.25,3.33333333333333,1,m,m,-800,-400,-800,0,L,S,=,0.430567385942994,0.224046372616786,1.66067880303979,1.99754504413737,1.76304272766387,1522.52053390462,1522.96887476718,1522.96887476718,1526.16873158034,3.2,1527.85915465423,1527.85915465423,1530.25899792954,2.4,1532.40393837077,1533.23983554398,0.835897173214107,78,Shorter,Middle,78,S,Middle
213,Temporal,4132,4,1,52,1200,5,5,1,m,m,-800,0,-800,400,L,S,=,0.398392145999667,0.361856226210325,1.14689452063812,1.53728507353645,1.9742680688001,1535.15394910666,1535.56901444444,1535.56901444444,1537.16902094389,1.6,1538.34911611306,1538.34911611306,1540.74915347368,2.4,1542.43726777934,1542.98422166659,0.546953887255995,66,Longer,Index,66,L,Index
213,Temporal,4132,4,1,53,800,5,5,1,l,l,-1600,-1200,-1600,-800,L,S,=,0.436135816585261,0.440516358657282,1.52752621115341,1.97576324209782,1.2321172197672,1545.10398737836,1545.55932974805,1545.55932974805,1546.35914241884,0.8,1547.90921871842,1547.90921871842,1549.50906192957,1.6,1551.62073005404,1552.78387975565,1.16314970161648,66,Longer,Index,77,=,Ring
213,Temporal,4132,4,1,54,800,1.25,3.33333333333333,1,m,m,-800,-400,-800,0,L,S,=,0.456516845514693,0.42681979822778,1.83579959921595,1.7623495365719,1.09067508746908,1554.17076587666,1554.63935930034,1554.63935930034,1557.83921065987,3.2,1559.70950814613,1559.70950814613,1562.1093453262,2.4,1564.02074435083,1564.59192393396,0.571179583124149,78,Shorter,Middle,78,S,Middle
213,Temporal,4132,4,1,55,800,1.66666666666667,5,1,m,m,-800,-400,-800,0,S,=,L,0.443635318714149,0.479996588474641,1.72908188592408,1.67452894832127,1.96635143645281,1565.82080087617,1566.27967752325,1566.27967752325,1568.67955640761,2.4,1570.42968557539,1570.42968557539,1572.02952076649,1.6,1573.83747456841,1574.3759358601,0.53846129169051,66,Shorter,Index,66,S,Index
213,Temporal,4132,4,1,56,1600,7.5,20,2,r,r,0,1200,0,1600,S,=,L,0.262527647802037,0.225907654698476,1.95716047014961,1.55525953396619,1.22193383081175,1576.50419384663,1576.77957614977,1576.77957614977,1578.37945272435,1.6,1580.35982096031,1580.35982096031,1581.1594703428,0.8,1582.85419926819,1583.29593774642,0.441738478230036,66,Shorter,Index,66,S,Index
213,Temporal,4132,4,1,57,400,1.66666666666667,1.25,2,l,l,-1600,-1200,-1600,-1200,S,=,L,0.288841319460489,0.404406999757,1.62974038240823,1.85112600906249,1.70003682620544,1584.68760157398,1584.98972947396,1584.98972947396,1587.38962824804,2.4,1589.04997098665,1589.04997098665,1592.24984640634,3.2,1594.25434543663,1594.75201030673,0.497664870104927,77,Longer,Ring,77,L,Ring
213,Temporal,4132,4,1,58,800,7.5,3.33333333333333,1,l,l,-1600,-400,-1600,-800,S,=,L,0.374365288990977,0.499150410584532,1.0039767851457,1.63863587271906,1.10100946032283,1596.60435116801,1596.99004097285,1596.99004097285,1598.59006575803,1.6,1599.62014132618,1599.62014132618,1602.01979629063,2.4,1603.80438125925,1604.29594769128,0.491566432031959,77,Longer,Ring,78,=,Middle
213,Temporal,4132,4,1,59,1200,6.66666666666667,7.5,1,r,r,0,1600,0,1200,=,L,S,0.240222133958947,0.209046504535481,1.97209748939807,1.78872940870793,1.72945958312966,1605.55439136452,1605.81027082118,1605.81027082118,1608.2101140965,2.4,1610.21025657757,1610.21025657757,1611.81008952305,1.6,1613.73780724967,1614.535952298,0.798145048335073,77,Shorter,Ring,66,=,Index
213,Temporal,4132,4,1,60,1200,3.33333333333333,7.5,1,r,r,0,800,0,1200,L,S,=,0.450903911249196,0.467939742926805,1.2624832776161,1.19392147353432,1.55173642338205,1616.42111667382,1616.89017365662,1616.89017365662,1619.29018182425,2.4,1620.58039105142,1620.58039105142,1622.18027436284,1.6,1623.52114888236,1624.79197134852,1.2708224661601,78,Shorter,Middle,77,=,Ring
213,Temporal,4132,4,1,61,400,10,5,2,l,l,-1600,-800,-1600,-1200,=,L,S,0.255961169850532,0.426291784856609,1.39974978679884,1.65825693213426,1.11284902514368,1626.48785250543,1626.76020322817,1626.76020322817,1627.56017309201,0.8,1628.99045609085,1628.99045609085,1629.79029731303,0.8,1631.58792386281,1632.08792994707,0.500006084264214,66,Equals to,Index,77,S,Ring
213,Temporal,4132,4,1,62,1600,5,5,2,r,r,0,1600,0,1600,=,L,S,0.453605997931669,0.387264321202306,1.41838933268849,1.08321021222185,1.80448066388631,1633.38789728941,1633.86063451459,1633.86063451459,1637.06054393931,3.2,1638.50066112834,1638.50066112834,1641.70064626237,3.2,1642.9379305566,1643.92777941387,0.989848857270772,66,Equals to,Index,66,=,Index
213,Temporal,4132,4,1,63,400,3.33333333333333,1.25,2,l,l,-1600,-800,-1600,-1200,S,=,L,0.398562294025402,0.364832203570104,1.31581027273371,1.3248126747569,1.7173380159165,1645.88803812156,1646.30078213491,1646.30078213491,1648.70069213707,2.4,1650.05092376907,1650.05092376907,1653.25083672261,3.2,1654.7213419411,1655.19197539062,0.470633449527895,77,Longer,Ring,77,L,Ring
213,Temporal,4132,4,1,64,800,3.75,3.33333333333333,1,m,m,-800,400,-800,0,=,L,S,0.279411692912767,0.404542436670751,1.03241416070441,1.2290868197622,1.89358058088645,1657.05476317422,1657.35109482078,1657.35109482078,1660.55066836563,3.2,1661.63103672992,1661.63103672992,1664.0309634138,2.4,1665.40475897171,1667.0479554316,1.64319645988394,77,Shorter,Ring,66,=,Index
213,Temporal,4132,4,1,65,800,5,5,1,l,l,-1600,-400,-1600,-800,L,S,=,0.442833740784738,0.38255926833888,1.62853908568204,1.09784674357409,1.85713751350847,1669.10482306799,1669.56111116244,1669.56111116244,1671.96112317969,2.4,1673.61108668523,1673.61108668523,1675.21109992153,1.6,1676.45488614789,1676.95993469751,0.505048549624917,78,Shorter,Middle,77,=,Ring
213,Temporal,4132,4,1,66,400,5,5,2,r,r,0,400,0,400,=,L,S,0.322318793626478,0.235774477041314,1.46443609755289,1.407182121727,1.05504205066282,1678.97157564547,1679.31141287687,1679.31141287687,1680.11124126696,0.8,1681.60129901135,1681.60129901135,1682.40107414829,0.8,1683.95445411342,1684.56800107533,0.613546961907332,66,Equals to,Index,66,=,Index
213,Temporal,4132,4,1,67,800,7.5,3.33333333333333,1,l,l,-1600,-400,-1600,-800,L,S,=,0.300245220987681,0.444321126274768,1.19515354918776,1.42074479494225,1.60275310021102,1685.77152390115,1686.09134355794,1686.09134355794,1687.69122077412,1.6,1688.91134595754,1688.91134595754,1691.31114752857,2.4,1692.8716639725,1693.41607302227,0.544409049768319,66,Longer,Index,66,L,Index
213,Temporal,4132,4,1,68,800,5,5,1,l,l,-1600,-1200,-1600,-800,S,=,L,0.243253811330347,0.445348443535976,1.74115557806534,1.83484289986957,1.3273305622118,1695.17166155629,1695.4313954509,1695.4313954509,1696.23139899897,0.8,1697.99172358018,1697.99172358018,1699.59127806939,1.6,1701.57165757834,1703.58402353918,2.01236596083777,77,Longer,Ring,77,L,Ring
213,Temporal,4132,4,1,69,1200,10,5,1,r,r,0,1600,0,1200,=,L,S,0.226634235247487,0.286671636123456,1.62768832480185,1.17580329747216,1.98565002132683,1705.07173328765,1705.31154248094,1705.31154248094,1706.91145691017,1.6,1708.56173993467,1708.56173993467,1710.96154503453,2.4,1712.27179354527,1712.81603311448,0.544239569208457,78,Longer,Middle,78,L,Middle
213,Temporal,4132,4,1,70,800,5,5,1,l,l,-1600,-1200,-1600,-800,S,=,L,0.341812479114208,0.360498601204782,1.09801228280053,1.4886961027683,1.95038904777637,1714.95515699095,1715.31195695733,1715.31195695733,1716.11180780358,0.8,1717.23177342,1717.23177342,1718.83166603469,1.6,1720.47178641249,1721.24798744765,0.776201035164377,77,Longer,Ring,78,=,Middle
213,Temporal,4132,4,1,71,1200,20,7.5,1,l,l,-1600,0,-1600,-400,=,L,S,0.231352527139558,0.219770134812404,1.44098760237326,1.54600804382491,1.08121654278956,1723.35515750424,1723.60180106673,1723.60180106673,1724.40166699068,0.8,1725.88181996839,1725.88181996839,1727.48169173094,1.6,1729.18857398482,1729.95203911477,0.763465129950418,78,Longer,Middle,66,=,Index
213,Temporal,4132,4,1,72,1200,5,5,1,l,l,-1600,-800,-1600,-400,L,S,=,0.384751530156425,0.228940280407051,1.70840824189751,1.70222434951946,1.24422634052351,1731.18854505313,1731.59209455579,1731.59209455579,1733.19194097497,1.6,1734.93218237859,1734.93218237859,1737.33210040081,2.4,1739.18860921357,1739.88782767535,0.69921846177931,66,Longer,Index,66,L,Index
213,Temporal,4132,4,1,73,1200,2.5,5,1,l,l,-1600,-800,-1600,-400,L,S,=,0.475801566669076,0.405909820829684,1.59903889196884,1.59175151544616,1.88372812641564,1768.72213336002,1769.21268184189,1769.21268184189,1772.41252935179,3.2,1774.0327153593,1774.0327153593,1776.4325708251,2.4,1778.17174785207,1778.64007697969,0.468329127617153,78,Shorter,Middle,78,S,Middle
213,Temporal,4132,4,1,74,1600,15,20,2,r,r,0,1200,0,1600,S,=,L,0.285158388906431,0.228482761558948,1.68558492866399,1.74116412412391,1.16729617390359,1780.67220980718,1780.97270995699,1780.97270995699,1781.77268334966,0.8,1783.49300839283,1783.49300839283,1784.29254838178,0.8,1786.17223643376,1787.04806193791,0.875825504156637,78,Equals to,Middle,78,=,Middle
213,Temporal,4132,4,1,75,800,5,5,1,m,m,-800,400,-800,0,=,L,S,0.283307884935653,0.37432962143833,1.07728494764841,1.21217719105428,1.32927046340065,1788.3723261942,1788.67288569242,1788.67288569242,1791.07280948907,2.4,1792.1827779478,1792.1827779478,1793.78270520912,1.6,1795.15568369491,1797.00003689225,1.84435319733348,77,Shorter,Ring,77,S,Ring
213,Temporal,4132,4,1,76,1200,5,5,1,r,r,0,1600,0,1200,L,S,=,0.24957508530233,0.269675230165849,1.88190641345984,1.1604737707721,1.66470618365204,1798.48899552353,1798.75293898407,1798.75293898407,1801.95289556671,3.2,1803.87304410452,1803.87304410452,1806.27294897385,2.4,1807.58902420324,1808.51203232659,0.923008123352247,78,Shorter,Middle,77,=,Ring
213,Temporal,4132,4,1,77,400,1.25,1.25,2,r,r,0,400,0,400,=,L,S,0.41847562535121,0.346994915393162,1.9947177569688,1.30617112708217,1.98544970637477,1810.33911098022,1810.77320052766,1810.77320052766,1813.97305156638,3.2,1816.00325096417,1816.00325096417,1819.20317290017,3.2,1820.65585238834,1821.07216412495,0.416311736610169,66,Equals to,Index,66,=,Index
213,Temporal,4132,4,1,78,800,5,5,1,r,r,0,1200,0,800,S,=,L,0.48428170657116,0.431240179704463,1.28056215693506,1.47424953559687,1.51550733119259,1823.20586034969,1823.70349246404,1823.70349246404,1826.10314903249,2.4,1827.41334776301,1827.41334776301,1829.01333854316,1.6,1830.62251434467,1831.62387262101,1.00135827634267,66,Shorter,Index,66,S,Index
213,Temporal,4132,4,1,79,1600,20,20,2,r,r,0,1600,0,1600,S,=,L,0.240081968651301,0.219231730746693,1.48742057165151,1.05460930359802,1.48128478200958,1833.28922688604,1833.54377244733,1833.54377244733,1834.34353443138,0.8,1835.8537125664,1835.8537125664,1836.65356886628,0.8,1837.85589342439,1838.3201060187,0.464212594308037,78,Equals to,Middle,78,=,Middle
213,Temporal,4132,4,1,80,1600,5,5,2,m,m,-800,400,-800,800,S,=,L,0.275264218925205,0.307379672699577,1.02045618714552,1.21040964594033,1.10674075634716,1839.95598241491,1840.24378617766,1840.24378617766,1842.64362560335,2.4,1843.69350845923,1843.69350845923,1846.89352439027,3.2,1848.2559574565,1848.68003256784,0.424075111334332,77,Longer,Ring,77,L,Ring
213,Temporal,4132,4,1,81,800,2.5,3.33333333333333,1,l,l,-1600,-1200,-1600,-800,=,L,S,0.253726394916638,0.369130098531941,1.16216425791644,1.25696012931233,1.22010238700253,1849.95601898636,1850.22373989233,1850.22373989233,1851.82356449695,1.6,1853.01401644304,1853.01401644304,1855.41391425472,2.4,1856.80608147316,1857.93609300183,1.13001152866627,78,Longer,Middle,78,L,Middle
213,Temporal,4132,4,1,82,1600,20,20,2,m,m,-800,800,-800,800,=,L,S,0.454313524185634,0.373959426555293,1.46457059680563,1.66499666785814,1.05005214320108,1859.30607381144,1859.77401344033,1859.77401344033,1860.57378312362,0.8,1862.07412963487,1862.07412963487,1862.8739493633,0.8,1864.68940801094,1865.12802797138,0.4386199604387,66,Equals to,Index,66,=,Index
213,Temporal,4132,4,1,83,1200,20,7.5,1,l,l,-1600,0,-1600,-400,=,L,S,0.371610446919235,0.379905082658244,1.6039730943854,1.23381222619471,1.65196565040636,1866.33945937137,1866.72414699027,1866.72414699027,1867.52406007213,0.8,1869.15415854556,1869.15415854556,1870.75400111511,1.6,1872.13951924247,1873.08808553612,0.948566293650629,78,Longer,Middle,78,L,Middle
213,Temporal,4132,4,1,84,1200,3.33333333333333,7.5,1,m,m,-800,0,-800,400,L,S,=,0.328154748789296,0.440749640693076,1.52571502568135,1.52334921083879,1.92389535363683,1874.8895449293,1875.23427856406,1875.23427856406,1877.63408879675,2.4,1879.19431271025,1879.19431271025,1880.79417549033,1.6,1882.45622205412,1882.8961101455,0.439888091374769,78,Shorter,Middle,77,=,Ring
213,Temporal,4132,4,1,85,800,2.5,3.33333333333333,1,r,r,0,400,0,800,S,=,L,0.274176521957098,0.210535124664404,1.57050586728177,1.17444340427216,1.68130435045541,1884.97294450828,1885.26428960607,1885.26428960607,1886.86414917814,1.6,1888.45447652466,1888.45447652466,1890.8543531634,2.4,1892.17298216423,1892.81610369096,0.643121526731193,77,Longer,Ring,77,L,Ring
213,Temporal,4132,4,1,86,400,2.5,5,2,r,r,0,400,0,400,S,=,L,0.354333616982683,0.241791769977554,1.563325883607,1.98780939473321,1.01527151885114,1894.65630539852,1895.02447491423,1895.02447491423,1896.62439319309,1.6,1898.21426981258,1898.21426981258,1899.01429292958,0.8,1901.13968271383,1901.58424489267,0.444562178836804,66,Shorter,Index,66,S,Index
213,Temporal,4132,4,1,87,1200,2.5,5,1,l,l,-1600,-800,-1600,-400,S,=,L,0.365847272250481,0.47957027321749,1.83233301455805,1.44219209770631,1.31937669561886,1902.7563735369,1903.13454021031,1903.13454021031,1906.33444803101,3.2,1908.20486517648,1908.20486517648,1910.60443961958,2.4,1912.18979155577,1912.63999517514,0.450203619362128,66,Shorter,Index,78,=,Middle
213,Temporal,4132,4,1,88,400,2.5,1.25,2,r,r,0,800,0,400,L,S,=,0.294196471068867,0.204300984334348,1.75536207354504,1.08073576286935,1.44180361923311,1914.10646300862,1914.41458734256,1914.41458734256,1917.61453911316,3.2,1919.39489971404,1919.39489971404,1922.5947565272,3.2,1923.82313471188,1924.24013838122,0.417003669334918,77,Equals to,Ring,77,=,Ring
213,Temporal,4132,4,1,89,800,1.25,3.33333333333333,1,m,m,-800,-400,-800,0,L,S,=,0.277834552267525,0.397710682657596,1.78446664022876,1.08116223932183,1.04204578364667,1925.83984337155,1926.13492870172,1926.13492870172,1929.33476562515,3.2,1931.15510747835,1931.15510747835,1933.55496903938,2.4,1934.78987105678,1936.35210539249,1.56223433571176,78,Shorter,Middle,77,=,Ring
213,Temporal,4132,4,1,90,400,1.25,1.25,2,r,r,0,400,0,400,=,L,S,0.497713153124891,0.233895249004731,1.5178319748101,1.47094761312916,1.24787354291925,1937.55636269379,1938.06500858787,1938.06500858787,1941.26494560158,3.2,1942.80516429241,1942.80516429241,1946.00503137124,3.2,1947.62332886135,1948.12011089489,0.496782033539375,66,Equals to,Index,66,=,Index
213,Temporal,4132,4,1,91,1200,6.66666666666667,7.5,1,r,r,0,1600,0,1200,L,S,=,0.250338798657549,0.41038383417915,1.50555471613536,1.88666638448289,1.23059651708477,1949.52337204132,1949.78550393207,1949.78550393207,1952.18501517715,2.4,1953.72531855975,1953.72531855975,1955.32521438246,1.6,1957.35676248842,1957.97595138692,0.619188898507446,78,Shorter,Middle,77,=,Ring
213,Temporal,4132,4,1,92,800,2.5,3.33333333333333,1,m,m,-800,-400,-800,0,L,S,=,0.406677641234443,0.494861501597616,1.96750017852612,1.12506013016336,1.78748905582684,1959.3567265476,1959.77533867405,1959.77533867405,1961.37522294788,1.6,1963.3756105218,1963.3756105218,1965.77546502519,2.4,1967.0400964203,1967.56813677464,0.528040354345194,66,Longer,Index,66,L,Index
213,Temporal,4132,4,1,93,400,2.5,5,2,r,r,0,400,0,400,L,S,=,0.213710064239457,0.433907328427669,1.99830588654457,1.94786647406694,1.90757792722972,1969.50682955717,1969.73551140676,1969.73551140676,1971.33537579086,1.6,1973.36545200062,1973.36545200062,1974.16539235066,0.8,1976.2568848095,1976.69626323229,0.439378422786376,78,Shorter,Middle,78,S,Middle
213,Temporal,4132,4,1,94,800,2.5,3.33333333333333,1,r,r,0,400,0,800,L,S,=,0.206265892312318,0.234256383032188,1.93185174079325,1.68554646531204,1.77403255932511,1978.75690029405,1978.97588301115,1978.97588301115,1980.57548145026,1.6,1982.53589835833,1982.53589835833,1984.93580419006,2.4,1986.77365355619,1987.44793156392,0.67427800772316,66,Longer,Index,66,L,Index
213,Temporal,4132,4,1,95,1200,2.5,5,1,m,m,-800,0,-800,400,=,L,S,0.273239475368025,0.383741322453668,1.57621746101954,1.07708983939376,1.37382529632405,1989.42361476024,1989.71592932215,1989.71592932215,1992.91584067168,3.2,1994.51612635884,1994.51612635884,1996.91602352891,2.4,1998.14035443602,1999.06406772005,0.923713284031692,77,Shorter,Ring,66,=,Index
213,Temporal,4132,4,1,96,1200,5,5,1,m,m,-800,800,-800,400,=,L,S,0.444881401005047,0.39625474876062,1.69228931059032,1.19710554867425,1.41555740237695,2000.60701927957,2001.06604285404,2001.06604285404,2004.2659298226,3.2,2005.98597480548,2005.98597480548,2008.38597206583,2.4,2009.74036775476,2010.28016069622,0.53979294145438,77,Shorter,Ring,66,=,Index
