Subject,Task,SequenceOrder,ListNo,RunNo,TrialNo,Aud_Probe_Dist,Aud_Standard_Vel,Aud_Probe_Vel,Main_Control,Aud_Std_StartCode,Aud_Probe_StartCode,Aud_Std_StartPt,Aud_Std_EndPt,Aud_Probe_StartPt,Aud_Probe_EndPt,RespIndex,RespMiddle,RespRing,ISI_Cross_Std,ISI_Cross_Probe,ISI_Std_Probe,ISI_Probe_Response,ITI,TrialOnset,StdOnset,StdOnsetByStop,StdOffset,StdDur,ProbeOnset,ProbeOnsetByStop,ProbeOffset,ProbeDur,RespWinStart,RespTime,RT,CorrectKC,CorrectResponse,CorrectFinger,SubjRespKC,SubjResponse,SubjRespFinger
204,Temporal,4132,2,4,1,800,1.66666666666667,5,1,l,l,-1600,-1200,-1600,-800,L,S,=,0.489109850187172,0.219055927943242,1.39076920075908,1.26223423780395,1.3924906223967,784467.334695779,784467.834924956,784467.834924956,784470.243635782,2.4,784471.674238197,784471.674238197,784473.274020209,1.6,784474.68467878,784475.000605674,0.315926893963479,78,Shorter,Middle,78,S,Middle
204,Temporal,4132,2,4,2,800,2.5,3.33333333333333,1,m,m,-800,-400,-800,0,=,L,S,0.202599247919547,0.243441565002628,1.80001195177726,1.74739186900393,1.19400324418325,784476.534730169,784476.754059151,784476.754059151,784478.35390404,1.6,784480.184064197,784480.184064197,784482.583866355,2.4,784484.484734484,784484.912601706,0.427867222693749,78,Longer,Middle,78,L,Middle
204,Temporal,4132,2,4,3,1200,2.5,5,1,r,r,0,800,0,1200,S,=,L,0.388496269388123,0.289694414072134,1.07144117196584,1.69189974027996,1.39450881989666,784486.268089936,784486.674362668,784486.674362668,784489.874105093,3.2,784490.974297,784490.974297,784493.374110065,2.4,784495.201470299,784495.536622579,0.335152279818431,66,Shorter,Index,78,=,Middle
204,Temporal,4132,2,4,4,800,1.25,3.33333333333333,1,l,l,-1600,-1200,-1600,-800,=,L,S,0.353951164351134,0.266323375221274,1.19268702866337,1.01731634652045,1.88760184095275,784497.0847921,784497.454244799,784497.454244799,784500.65437379,3.2,784501.874425288,784501.874425288,784504.274293532,2.4,784505.434869365,784505.968787905,0.533918539993465,77,Shorter,Ring,77,S,Ring
204,Temporal,4132,2,4,5,400,5,5,2,r,r,0,400,0,400,L,S,=,0.307369523268744,0.423728194062013,1.91311960296662,1.49074706424898,1.73279412923667,784508.001554927,784508.32453627,784508.32453627,784509.124314175,0.8,784511.064753177,784511.064753177,784511.864583694,0.8,784513.501548029,784513.840635265,0.339087235275656,77,Equals to,Ring,77,=,Ring
204,Temporal,4132,2,4,6,800,1.66666666666667,5,1,l,l,-1600,-1200,-1600,-800,L,S,=,0.486148127473058,0.407776106482592,1.19715420648244,1.69354678675146,1.162035307005,784515.718267324,784516.224419145,784516.224419145,784518.624405123,2.4,784519.844722887,784519.844722887,784521.444568417,1.6,784523.301600256,784524.008626362,0.707026105839759,78,Shorter,Middle,78,S,Middle
204,Temporal,4132,2,4,7,800,3.75,3.33333333333333,1,r,r,0,1200,0,800,S,=,L,0.390220869017554,0.229096720188282,1.34372904415881,1.94357601583562,1.26423991829139,784525.31830505,784525.724891205,784525.724891205,784528.924714793,3.2,784530.294726079,784530.294726079,784532.694559355,2.4,784534.801684146,784535.216584557,0.414900411851704,66,Shorter,Index,78,=,Middle
204,Temporal,4132,2,4,8,400,3.33333333333333,1.25,2,r,r,0,800,0,400,L,S,=,0.384845663520806,0.390682885776856,1.87236345258846,1.56806787148361,1.49784991100334,784536.635055173,784537.035021903,784537.035021903,784539.434877635,2.4,784541.33482631,784541.33482631,784544.53469096,3.2,784546.251703057,784546.608605381,0.356902324478142,66,Longer,Index,66,L,Index
204,Temporal,4132,2,4,9,1200,5,5,1,r,r,0,800,0,1200,=,L,S,0.28718340872157,0.431046562134624,1.51362394035416,1.06484098077097,1.13372895066972,784548.251751819,784548.55524862,784548.55524862,784550.155043464,1.6,784551.695074598,784551.695074598,784554.094964335,2.4,784555.318452298,784555.832758617,0.514306318829767,78,Longer,Middle,78,L,Middle
204,Temporal,4132,2,4,10,1200,10,7.5,1,r,r,0,800,0,1200,S,=,L,0.477183263604271,0.477439791723409,1.44887028428935,1.95094936333545,1.00033947927546,784557.11847469,784557.615216751,784557.615216751,784558.415042457,0.8,784559.895097118,784559.895097118,784561.49503536,1.6,784563.601811119,784564.912588874,1.31077775522135,77,Longer,Ring,77,L,Ring
204,Temporal,4132,2,4,11,800,5,5,1,m,m,-800,400,-800,0,S,=,L,0.46514191978074,0.319829299135545,1.16825810550835,1.51426219041237,1.38511275806669,784566.068531937,784566.545070219,784566.545070219,784568.945109129,2.4,784570.155434877,784570.155434877,784571.755275275,1.6,784573.418523869,784574.360578393,0.942054524086416,66,Shorter,Index,66,S,Index
204,Temporal,4132,2,4,12,400,1.25,1.25,2,l,l,-1600,-1200,-1600,-1200,L,S,=,0.296918894226412,0.245246192290263,1.58941837886636,1.12284438237789,1.89007047475037,784575.901913872,784576.215381515,784576.215381515,784579.415238146,3.2,784581.035446003,784581.035446003,784584.235313541,3.2,784585.501910215,784586.008714261,0.506804046803154,77,Equals to,Ring,77,=,Ring
204,Temporal,4132,2,4,13,1600,7.5,20,2,l,l,-1600,-400,-1600,0,L,S,=,0.485194089851706,0.479829411337013,1.36712384048514,1.12504742802773,1.59134250600176,784588.051971504,784588.555727898,784588.555727898,784590.155557388,1.6,784591.555837933,784591.555837933,784592.355587929,0.8,784593.618686327,784594.552611343,0.93392501573544,78,Shorter,Middle,78,S,Middle
204,Temporal,4132,2,4,14,400,2.5,5,2,r,r,0,400,0,400,S,=,L,0.285014282814857,0.215769285866043,1.44582281941401,1.86285483432255,1.6729761715773,784596.285382569,784596.58585055,784596.58585055,784598.185599519,1.6,784599.665692035,784599.665692035,784600.465554312,0.8,784602.485341761,784603.160481126,0.675139364320785,66,Shorter,Index,66,S,Index
204,Temporal,4132,2,4,15,1200,3.33333333333333,7.5,1,r,r,0,800,0,1200,L,S,=,0.305270610117517,0.237551729064214,1.14116379589155,1.82079578671179,1.55660287419612,784604.968760637,784605.285972679,784605.285972679,784607.685804993,2.4,784608.856071573,784608.856071573,784610.455832412,1.6,784612.418770075,784612.848686429,0.429916354012676,78,Shorter,Middle,77,=,Ring
204,Temporal,4132,2,4,16,800,1.25,3.33333333333333,1,l,l,-1600,-1200,-1600,-800,L,S,=,0.226354595271132,0.377365939745154,1.36139685655715,1.28364616955792,1.6007086253622,784614.551923544,784614.795942078,784614.795942078,784617.995825656,3.2,784619.395907945,784619.395907945,784621.795839386,2.4,784623.235459576,784623.864481108,0.629021531902254,78,Shorter,Middle,78,S,Middle
204,Temporal,4132,2,4,17,1200,6.66666666666667,7.5,1,m,m,-800,800,-800,400,S,=,L,0.367384467850108,0.419549204422515,1.40385574720262,1.10994755799679,1.86848225639759,784625.618834148,784626.006150057,784626.006150057,784628.405948687,2.4,784629.836358299,784629.836358299,784631.435906126,1.6,784632.702215642,784634.864497469,2.16228182660416,66,Shorter,Index,66,S,Index
204,Temporal,4132,2,4,18,1200,10,7.5,1,m,m,-800,0,-800,400,S,=,L,0.411062737324927,0.365392755586258,1.25003287526743,1.17048414293643,1.15234655293746,784636.885556827,784637.316197988,784637.316197988,784638.116193397,0.8,784639.39613828,784639.39613828,784640.996023911,1.6,784642.31888923,784642.760455013,0.441565782530233,77,Longer,Ring,77,L,Ring
204,Temporal,4132,2,4,19,400,10,5,2,m,m,-800,0,-800,-400,=,L,S,0.322767048701497,0.316018664924344,1.64158604526279,1.39851952790676,1.03062177308518,784644.068919145,784644.406596421,784644.406596421,784645.206370156,0.8,784646.876394691,784646.876394691,784647.676206922,0.8,784649.218964464,784649.680535893,0.461571428924799,66,Equals to,Index,77,S,Ring
204,Temporal,4132,2,4,20,400,2.5,1.25,2,l,l,-1600,-800,-1600,-1200,L,S,=,0.441146031574258,0.348243483700944,1.42424941615174,1.53918220287359,1.17255900253237,784650.868965276,784651.326371898,784651.326371898,784654.526270553,3.2,784655.976464658,784655.976464658,784659.176272526,3.2,784660.852307319,784661.224558408,0.372251089080237,77,Equals to,Ring,77,=,Ring
204,Temporal,4132,2,4,21,1200,6.66666666666667,7.5,1,l,l,-1600,0,-1600,-400,S,=,L,0.422542038164221,0.426223403452045,1.26052594743844,1.24015871356052,1.94374259392528,784662.535716266,784662.97655352,784662.97655352,784665.376373001,2.4,784666.656613022,784666.656613022,784668.256634994,1.6,784669.635699022,784670.584549734,0.948850711341947,66,Shorter,Index,66,S,Index
204,Temporal,4132,2,4,22,800,5,5,1,l,l,-1600,-1200,-1600,-800,S,=,L,0.456321507323048,0.367014369010667,1.14534825860044,1.39763316490803,1.74416218564597,784672.669106686,784673.136639418,784673.136639418,784673.936461594,0.8,784675.116933523,784675.116933523,784676.716653299,1.6,784678.269074156,784678.71236874,0.443294583703391,77,Longer,Ring,77,L,Ring
204,Temporal,4132,2,4,23,800,5,5,1,r,r,0,400,0,800,L,S,=,0.36846793019867,0.471010321254269,1.56606449991556,1.70486695975813,1.76404673592817,784680.602462347,784680.986916382,784680.986916382,784681.786805927,0.8,784683.386879297,784683.386879297,784684.986677349,1.6,784686.835827688,784687.296392038,0.460564349777997,66,Longer,Index,66,L,Index
204,Temporal,4132,2,4,24,1200,5,5,1,m,m,-800,800,-800,400,L,S,=,0.237927424098252,0.331671720023306,1.96968975528273,1.96550539320614,1.52247723444108,784689.219125629,784689.476962061,784689.476962061,784692.676790782,3.2,784694.667267172,784694.667267172,784697.066758795,2.4,784699.185852703,784699.584575719,0.398723016143776,78,Shorter,Middle,78,S,Middle
204,Temporal,4132,2,4,25,1200,2.5,5,1,m,m,-800,0,-800,400,=,L,S,0.246615850356304,0.289167077992935,1.28801985711444,1.35803194283133,1.02794245819777,784704.252586224,784704.517311235,784704.517311235,784707.717116858,3.2,784709.037367285,784709.037367285,784711.437182596,2.4,784712.935948703,784713.408552064,0.472603361587971,77,Shorter,Ring,66,=,Index
204,Temporal,4132,2,4,26,1200,5,5,1,m,m,-800,800,-800,400,L,S,=,0.362824426858615,0.405910748320041,1.17623243025051,1.81652657189824,1.90333199528797,784714.585964791,784714.967499208,784714.967499208,784718.167351348,3.2,784719.37745061,784719.37745061,784721.777292548,2.4,784723.73600125,NaN,NaN,78,Shorter,Middle,999,Missed,Missed
204,Temporal,4132,2,4,27,1600,5,5,2,l,l,-1600,-400,-1600,0,=,L,S,0.211128450561349,0.31941203304138,1.45933887677615,1.24336589951415,1.15193818826704,784728.786060133,784729.007568322,784729.007568322,784731.407525107,2.4,784732.897613167,784732.897613167,784736.097501877,3.2,784737.502772503,784738.304455713,0.801683209836483,78,Longer,Middle,66,=,Index
204,Temporal,4132,2,4,28,800,1.25,3.33333333333333,1,m,m,-800,-400,-800,0,S,=,L,0.285865709053108,0.463152634325262,1.23279536558185,1.65290538744757,1.61617688148996,784739.602766146,784739.907794134,784739.907794134,784743.107682845,3.2,784744.367609372,784744.367609372,784746.767494939,2.4,784748.569436438,784748.936348742,0.36691230465658,66,Shorter,Index,78,=,Middle
204,Temporal,4132,2,4,29,800,5,5,1,r,r,0,400,0,800,S,=,L,0.354855741068967,0.453370258872808,1.5409701822558,1.22983898318989,1.19196173689192,784750.702821677,784751.067820684,784751.067820684,784751.867528655,0.8,784753.43779825,784753.43779825,784755.037652122,1.6,784756.419474084,784757.760529439,1.34105535468552,77,Longer,Ring,77,L,Ring
204,Temporal,4132,2,4,30,1600,5,5,2,l,l,-1600,-400,-1600,0,=,L,S,0.39779304779592,0.210268788251901,1.01284344201475,1.02456297823325,1.99479115206532,784759.102892702,784759.517868788,784759.517868788,784761.917711047,2.4,784762.968151078,784762.968151078,784766.167979799,3.2,784767.336197452,784767.784521247,0.448323794291355,78,Longer,Middle,78,L,Middle
204,Temporal,4132,2,4,31,800,1.25,3.33333333333333,1,l,l,-1600,-1200,-1600,-800,L,S,=,0.212351545749102,0.432207610638814,1.51857265128172,1.89288307926053,1.49372817590133,784769.936256672,784770.168307693,784770.168307693,784773.367836464,3.2,784774.918188114,784774.918188114,784777.318003746,2.4,784779.352977976,784780.736545651,1.38356767420191,78,Shorter,Middle,77,=,Ring
204,Temporal,4132,2,4,32,1600,5,5,2,r,r,0,1600,0,1600,=,L,S,0.346207876931947,0.392227544415763,1.11974872254609,1.84046289107002,1.935891073277,784782.386320175,784782.748336366,784782.748336366,784785.948142631,3.2,784787.108388324,784787.108388324,784790.308252333,3.2,784792.286363451,784792.768580282,0.48221683059819,66,Equals to,Index,66,=,Index
204,Temporal,4132,2,4,33,1200,20,7.5,1,l,l,-1600,0,-1600,-400,=,L,S,0.328706454595573,0.404927021142837,1.94956727371863,1.7298400833908,1.79228248758874,784794.853049975,784795.198451839,784795.198451839,784795.998288452,0.8,784797.988648391,784797.988648391,784799.58840121,1.6,784801.469527513,784802.136501829,0.666974315652624,78,Longer,Middle,66,=,Index
204,Temporal,4132,2,4,34,800,3.75,3.33333333333333,1,l,l,-1600,-400,-1600,-800,S,=,L,0.40727998270587,0.312916154144521,1.82106040888542,1.29573554890686,1.05378510017029,784804.069795255,784804.488588562,784804.488588562,784807.688505503,3.2,784809.538653219,784809.538653219,784811.938452811,2.4,784813.386441759,784814.480429644,1.09398788458202,66,Shorter,Index,66,S,Index
204,Temporal,4132,2,4,35,1200,20,7.5,1,r,r,0,1600,0,1200,S,=,L,0.393972932149333,0.215871041503512,1.81450251922187,1.00641651069403,1.29275280640328,784815.686487088,784816.098700749,784816.098700749,784816.898518114,0.8,784818.748766562,784818.748766562,784820.348549215,1.6,784821.503206869,784823.704484393,2.2012775237672,77,Longer,Ring,77,L,Ring
204,Temporal,4132,2,4,36,1600,10,20,2,l,l,-1600,0,-1600,0,=,L,S,0.413001583045868,0.470454130518336,1.9599435033568,1.66786368158504,1.82124932717432,784825.153202453,784825.578930854,784825.578930854,784827.178703884,1.6,784829.158890555,784829.158890555,784829.958669102,0.8,784831.769883058,784834.160484334,2.39060127560515,77,Shorter,Ring,66,=,Index
204,Temporal,4132,2,4,37,800,2.5,3.33333333333333,1,r,r,0,400,0,800,L,S,=,0.41832562098011,0.416158750163606,1.75339718235325,1.83243568849704,1.07601364825801,784836.119950058,784836.54893941,784836.54893941,784838.148943417,1.6,784839.939120114,784839.939120114,784842.338970714,2.4,784844.319942422,NaN,NaN,66,Longer,Index,999,Missed,Missed
204,Temporal,4132,2,4,38,1600,15,20,2,m,m,-800,400,-800,800,=,L,S,0.416135440575364,0.285390461928008,1.43395289670628,1.14677706068082,1.4654169780852,784848.486667636,784848.919407803,784848.919407803,784849.718794972,0.8,784851.189340425,784851.189340425,784851.98916613,0.8,784853.286650248,NaN,NaN,66,Equals to,Index,999,Missed,Missed
204,Temporal,4132,2,4,39,1200,5,5,1,m,m,-800,0,-800,400,L,S,=,0.377441504477229,0.46719025990817,1.56770587635147,1.59551342034853,1.73355667264103,784857.820075395,784858.209403052,784858.209403052,784859.809126036,1.6,784861.399455051,784861.399455051,784863.799059274,2.4,784865.553429122,784866.728400812,1.17497168993577,66,Longer,Index,66,L,Index
204,Temporal,4132,2,4,40,800,3.75,3.33333333333333,1,r,r,0,1200,0,800,S,=,L,0.305366903759795,0.335860063539218,1.85719279330405,1.5497440208339,1.7385919385745,784868.620109656,784868.939591372,784868.939591372,784872.139399241,3.2,784874.029735409,784874.029735409,784876.429363372,2.4,784878.136781889,NaN,NaN,66,Shorter,Index,999,Missed,Missed
204,Temporal,4132,2,4,41,1600,5,5,2,l,l,-1600,0,-1600,0,S,=,L,0.267523083607871,0.424294939410728,1.12856150030371,1.33621569258834,1.15379533526721,784882.970151954,784883.249813499,784883.249813499,784886.449343232,3.2,784887.609561977,784887.609561977,784890.809481806,3.2,784892.286901764,784892.688359929,0.40145816502627,78,Equals to,Middle,77,L,Ring
204,Temporal,4132,2,4,42,800,15,5,1,m,m,-800,400,-800,0,S,=,L,0.395616458358815,0.249922590909371,1.28468103409507,1.20848303754107,1.95723086970673,784893.986930164,784894.399783231,784894.399783231,784895.199557929,0.8,784896.519741629,784896.519741629,784898.119580103,1.6,784899.470248997,784899.808534869,0.338285872363485,77,Longer,Ring,78,=,Middle
204,Temporal,4132,2,4,43,800,2.5,3.33333333333333,1,l,l,-1600,-1200,-1600,-800,=,L,S,0.473660950434354,0.420389274000118,1.36211368291852,1.96990427915557,1.02118618779757,784901.903648768,784902.390167195,784902.390167195,784903.989627122,1.6,784905.380105566,784905.380105566,784907.779646592,2.4,784909.903666338,784910.256419486,0.352753147832118,78,Longer,Middle,78,L,Middle
204,Temporal,4132,2,4,44,800,1.66666666666667,5,1,l,l,-1600,-1200,-1600,-800,L,S,=,0.490443596025928,0.239887431801565,1.34739805208323,1.58403870831026,1.00535701793593,784911.420356289,784911.930026665,784911.930026665,784914.329942066,2.4,784915.720157132,784915.720157132,784917.320015495,1.6,784919.053645448,784920.400360068,1.34671462012921,78,Shorter,Middle,77,=,Ring
204,Temporal,4132,2,4,45,1600,20,20,2,l,l,-1600,0,-1600,0,=,L,S,0.365042804265196,0.370338049362123,1.94492576144897,1.15517715309523,1.90215663217919,784921.553713297,784921.930159156,784921.930159156,784922.729934175,0.8,784924.700383868,784924.700383868,784925.499937854,0.8,784926.803712576,784927.616324836,0.812612260575406,66,Equals to,Index,66,=,Index
204,Temporal,4132,2,4,46,400,1.66666666666667,1.25,2,m,m,-800,-400,-800,-400,=,L,S,0.480361365604102,0.262339449233654,1.92829137074852,1.49192707997477,1.23181525884582,784929.670430635,784930.170250469,784930.170250469,784932.570036587,2.4,784934.530222868,784934.530222868,784937.730347688,3.2,784939.370445937,784940.432203501,1.06175756431185,78,Longer,Middle,66,=,Index
204,Temporal,4132,2,4,47,800,7.5,3.33333333333333,1,m,m,-800,400,-800,0,=,L,S,0.245075530912974,0.303710439633251,1.37741262751097,1.07594006889641,1.57464451025397,784941.820486663,784942.080290573,784942.080290573,784943.680383762,1.6,784945.100689721,784945.100689721,784947.500213102,2.4,784948.720535578,784949.176380707,0.455845129210502,78,Longer,Middle,66,=,Index
204,Temporal,4132,2,4,48,1200,10,7.5,1,r,r,0,800,0,1200,=,L,S,0.25829937181779,0.303204939464199,1.82173468418807,1.97444663910147,1.99484494526362,784950.887207353,784951.16054878,784951.16054878,784951.960352991,0.8,784953.810639936,784953.810639936,784955.41044697,1.6,784957.520536933,784957.880409882,0.359872949542478,78,Longer,Middle,78,L,Middle
204,Temporal,4132,2,4,49,1600,20,20,2,m,m,-800,800,-800,800,S,=,L,0.229789231182888,0.416214909704029,1.44265699968783,1.829565985608,1.38081004376332,784961.520578316,784961.76049989,784961.76049989,784962.560537645,0.8,784964.030449835,784964.030449835,784964.830511329,0.8,784966.820628457,784967.192398023,0.371769565506838,78,Equals to,Middle,78,=,Middle
204,Temporal,4132,2,4,50,1200,3.33333333333333,7.5,1,m,m,-800,0,-800,400,S,=,L,0.310101755167393,0.252235770405587,1.99382669974132,1.19507076530582,1.29306570959983,784968.720616556,784969.051025424,784969.051025424,784971.450506139,2.4,784973.480855633,784973.480855633,784975.080821785,1.6,784976.437311308,784977.568377792,1.13106648332905,66,Shorter,Index,78,=,Middle
204,Temporal,4132,2,4,51,1600,6.66666666666667,5,2,m,m,-800,800,-800,800,S,=,L,0.217619089727749,0.410658155724323,1.51508997754474,1.26932013844375,1.22651560081084,784979.020702947,784979.250858029,784979.250858029,784981.65066917,2.4,784983.201230304,784983.201230304,784986.400721541,3.2,784987.820733367,784988.304342791,0.483609423739836,77,Longer,Ring,77,L,Ring
204,Temporal,4132,2,4,52,1200,3.33333333333333,7.5,1,l,l,-1600,-800,-1600,-400,=,L,S,0.236402954418658,0.251991664070537,1.99164071984613,1.51321204922763,1.12739844329123,784989.67077293,784989.921211993,784989.921211993,784992.320974372,2.4,784994.341133916,784994.341133916,784995.940983938,1.6,784997.604083038,784998.752346104,1.1482630665414,77,Shorter,Ring,77,S,Ring
204,Temporal,4132,2,4,53,1200,3.33333333333333,7.5,1,m,m,-800,0,-800,400,=,L,S,0.312760802582671,0.452999055558432,1.27198363670013,1.15517070428252,1.6028470928464,785000.02086784,785000.351469189,785000.351469189,785002.751230285,2.4,785004.061354602,785004.061354602,785005.661199812,1.6,785006.95397135,785007.312323699,0.358352348906919,77,Shorter,Ring,66,=,Index
204,Temporal,4132,2,4,54,1200,2.5,5,1,m,m,-800,0,-800,400,L,S,=,0.223639561473871,0.310787554560751,1.96766409507793,1.43407355846427,1.41651709057358,785009.070846522,785009.311365108,785009.311365108,785012.51115822,3.2,785014.501498911,785014.501498911,785016.901259045,2.4,785018.487539896,785018.816339657,0.32879976159893,78,Shorter,Middle,77,=,Ring
204,Temporal,4132,2,4,55,1600,15,20,2,l,l,-1600,-400,-1600,0,S,=,L,0.472520765370283,0.280548654674792,1.26211463080701,1.25048101902285,1.36448439601209,785020.38757451,785020.871624367,785020.871624367,785021.671426012,0.8,785022.961257367,785022.961257367,785023.76121845,0.8,785025.154214582,785025.584339929,0.430125346989371,78,Equals to,Middle,78,=,Middle
204,Temporal,4132,2,4,56,1200,10,5,1,l,l,-1600,0,-1600,-400,=,L,S,0.310973869116021,0.497830585357308,1.43721277087879,1.53741620186605,1.15186213550508,785027.104259639,785027.431503156,785027.431503156,785029.03138205,1.6,785030.511656781,785030.511656781,785032.911558388,2.4,785034.587649321,785035.0401676,0.452518278500065,78,Longer,Middle,66,=,Index
204,Temporal,4132,2,4,57,400,1.66666666666667,1.25,2,r,r,0,400,0,400,S,=,L,0.303010923314418,0.429479412645553,1.24451708738225,1.90755455391335,1.63293805104192,785036.337674424,785036.651709566,785036.651709566,785039.051571073,2.4,785040.331832587,785040.331832587,785043.531712636,3.2,785045.587706718,785046.000447519,0.412740800529718,77,Longer,Ring,77,L,Ring
204,Temporal,4132,2,4,58,800,15,5,1,r,r,0,1200,0,800,L,S,=,0.203378539993803,0.484791944913206,1.18905485876817,1.79228908734533,1.43112007829722,785047.78773536,785048.002004335,785048.002004335,785048.80150603,0.8,785050.022112836,785050.022112836,785051.62165938,1.6,785053.553908666,785054.08817688,0.534268214134499,66,Longer,Index,66,L,Index
204,Temporal,4132,2,4,59,800,7.5,3.33333333333333,1,m,m,-800,400,-800,0,=,L,S,0.365820280857997,0.414139249513355,1.00246536571435,1.14995072218338,1.04631013940173,785055.67108475,785056.052046215,785056.052046215,785057.651803526,1.6,785058.692094669,785058.692094669,785061.091734181,2.4,785062.38780527,785063.71226865,1.32446337980218,78,Longer,Middle,78,L,Middle
204,Temporal,4132,2,4,60,1200,5,5,1,r,r,0,800,0,1200,=,L,S,0.455047734090355,0.249401938488437,1.01284624951237,1.90939813214604,1.21963229709973,785064.921114183,785065.392092007,785065.392092007,785066.991793818,1.6,785068.032102927,785068.032102927,785070.431922408,2.4,785072.487800387,785073.312371178,0.824570791213773,78,Longer,Middle,66,=,Index
204,Temporal,4132,2,4,61,400,1.25,1.25,2,m,m,-800,-400,-800,-400,S,=,L,0.318740937495154,0.452828914782855,1.07639031795019,1.52022291803047,1.87897401773538,785074.671205371,785075.002154149,785075.002154149,785078.201972283,3.2,785079.312308266,785079.312308266,785082.512146289,3.2,785084.171243169,785085.408111924,1.23686875530984,78,Equals to,Middle,77,L,Ring
204,Temporal,4132,2,4,62,800,5,5,1,m,m,-800,400,-800,0,=,L,S,0.201051802735011,0.423128134551319,1.06575150829194,1.4973151130119,1.73623829000581,785087.437917303,785087.652124683,785087.652124683,785090.05223,2.4,785091.152644864,785091.152644864,785092.752405061,1.6,785094.404579896,785095.456341916,1.05176202021539,77,Shorter,Ring,77,S,Ring
204,Temporal,4132,2,4,63,800,5,5,1,r,r,0,1200,0,800,=,L,S,0.482536246368503,0.462252179320907,1.22325108189265,1.95931893386156,1.61844835730098,785097.337987847,785097.832243695,785097.832243695,785100.232302174,2.4,785101.492726585,785101.492726585,785103.092546451,1.6,785105.188027985,785105.992149337,0.804121351684444,77,Shorter,Ring,77,S,Ring
204,Temporal,4132,2,4,64,1200,10,5,1,l,l,-1600,0,-1600,-400,=,L,S,0.381677094639558,0.343888120650982,1.45294749456566,1.95769559648086,1.06229784383375,785107.754678013,785108.152918508,785108.152918508,785109.752389342,1.6,785111.242822906,785111.242822906,785113.64271136,2.4,785115.738037379,785116.224332243,0.48629486374557,78,Longer,Middle,66,=,Index
204,Temporal,4132,2,4,65,1200,20,7.5,1,m,m,-800,800,-800,400,L,S,=,0.213014071414799,0.440779629244256,1.71506113312604,1.0915533192105,1.46223582069981,785117.421423597,785117.652844563,785117.652844563,785118.45261124,0.8,785120.203012037,785120.203012037,785121.802532917,1.6,785123.038061215,785124.928287954,1.89022673957516,66,Longer,Index,77,=,Ring
204,Temporal,4132,2,4,66,800,15,5,1,m,m,-800,400,-800,0,L,S,=,0.490344082029722,0.469984037389171,1.95885999517582,1.83288007793218,1.46139535493784,785126.521469503,785127.022873137,785127.022873137,785127.822697559,0.8,785129.812913458,785129.812913458,785131.412698037,1.6,785133.388129818,785133.696339234,0.308209415641613,66,Longer,Index,77,=,Ring
204,Temporal,4132,2,4,67,1200,6.66666666666667,7.5,1,l,l,-1600,0,-1600,-400,L,S,=,0.49474941195168,0.233046350888862,1.08883768554451,1.93058683301635,1.41990593312529,785135.321476818,785135.833158621,785135.833158621,785138.233017241,2.4,785139.363174928,785139.363174928,785140.962989341,1.6,785143.038229978,785143.384313239,0.346083261072636,78,Shorter,Middle,78,S,Middle
204,Temporal,4132,2,4,68,1600,10,20,2,r,r,0,1600,0,1600,=,L,S,0.286758205714155,0.211782575563715,1.11131870283924,1.6573301953836,1.1642870323312,785144.954879861,785145.253384023,785145.253384023,785146.853184,1.6,785147.993130314,785147.993130314,785148.7931084,0.8,785150.588214895,785151.072392466,0.484177571488544,77,Shorter,Ring,77,S,Ring
204,Temporal,4132,2,4,69,1600,3.75,5,2,r,r,0,1200,0,1600,L,S,=,0.327029594437918,0.420837327335535,1.32004041932526,1.53773109106896,1.5305936676396,785152.388274179,785152.733392133,785152.733392133,785155.933182037,3.2,785157.293403413,785157.293403413,785160.493291802,3.2,785162.171660068,785163.44030856,1.26864849217236,77,Equals to,Ring,77,=,Ring
204,Temporal,4132,2,4,70,800,1.66666666666667,5,1,r,r,0,400,0,800,S,=,L,0.251604734376099,0.293090796231867,1.26101939734186,1.62629955159392,1.8236683512487,785165.121656082,785165.393525028,785165.393525028,785167.793436259,2.4,785169.083567243,785169.083567243,785170.683325195,1.6,785172.455010909,785172.960108611,0.505097701796331,66,Shorter,Index,78,=,Middle
204,Temporal,4132,2,4,71,400,5,5,2,r,r,0,800,0,400,S,=,L,0.240806367785654,0.465706736390625,1.711318271806,1.11741564025109,1.61515016069871,785174.921729802,785175.173657706,785175.173657706,785176.773495216,1.6,785178.513760279,785178.513760279,785179.313554225,0.8,785180.571748928,785181.432228524,0.860479595488869,66,Shorter,Index,66,S,Index
204,Temporal,4132,2,4,72,400,10,5,2,l,l,-1600,-800,-1600,-1200,L,S,=,0.423191687989767,0.451342220234254,1.15489531087815,1.70040102473761,1.39422829470731,785183.205114192,785183.643695294,785183.643695294,785184.443548588,0.8,785185.623828677,785185.623828677,785186.423661119,0.8,785188.271771137,785189.352232091,1.08046095375903,77,Equals to,Ring,77,=,Ring
204,Temporal,4132,2,4,73,1200,5,5,1,r,r,0,800,0,1200,L,S,=,0.210755507496969,0.34463917054549,1.28936931205343,1.07813534931694,1.60319743306902,785194.055160274,785194.283641733,785194.283641733,785195.883618793,1.6,785197.213846478,785197.213846478,785199.613699965,2.4,785200.838470815,785201.904347795,1.06587698089425,66,Longer,Index,66,L,Index
204,Temporal,4132,2,4,74,1600,6.66666666666667,5,2,l,l,-1600,0,-1600,0,=,L,S,0.399032682346617,0.370769418930903,1.74057525343091,1.09998568321037,1.13419466220871,785203.655204416,785204.073842456,785204.073842456,785206.473766519,2.4,785208.243955336,785208.243955336,785211.443823515,3.2,785212.68856813,785214.232319888,1.54375175840687,78,Longer,Middle,78,L,Middle
204,Temporal,4132,2,4,75,1600,3.75,5,2,m,m,-800,400,-800,800,=,L,S,0.399934039848838,0.303230908426053,1.88346365819782,1.15021692741408,1.44437415575262,785215.521921513,785215.934299104,785215.934299104,785219.133879845,3.2,785221.054429773,785221.054429773,785224.253952449,3.2,785225.55531741,785226.4002449,0.844927490223199,66,Equals to,Index,66,=,Index
204,Temporal,4132,2,4,76,1200,10,5,1,m,m,-800,800,-800,400,L,S,=,0.354281393561525,0.465986745912433,1.70266829439143,1.82274972988117,1.49926394669473,785228.005320819,785228.374248366,785228.374248366,785229.974091651,1.6,785231.704326844,785231.704326844,785234.104136381,2.4,785236.071994993,785236.680043783,0.60804879013449,66,Longer,Index,77,=,Ring
204,Temporal,4132,2,4,77,1200,2.5,5,1,l,l,-1600,-800,-1600,-400,=,L,S,0.335620119280507,0.30385450076766,1.35110981509172,1.80008722549569,1.15053594512581,785238.33874494,785238.69454335,785238.69454335,785241.894397735,3.2,785243.274550529,785243.274550529,785245.674366161,2.4,785247.621900372,785248.632284408,1.01038403506391,77,Shorter,Ring,66,=,Index
204,Temporal,4132,2,4,78,1200,10,7.5,1,l,l,-1600,-800,-1600,-400,=,L,S,0.448206129694141,0.397600535120182,1.40487095512525,1.93260620840696,1.8462738016438,785249.938767909,785250.404732883,785250.404732883,785251.204505014,0.8,785252.644878732,785252.644878732,785254.244648554,1.6,785256.322107193,785257.776207987,1.45410079392605,78,Longer,Middle,78,L,Middle
204,Temporal,4132,2,4,79,1200,5,5,1,r,r,0,1600,0,1200,S,=,L,0.269766595894693,0.339543124273987,1.70527555473839,1.35593809108809,1.7077075805737,785259.772165884,785260.054741593,785260.054741593,785263.254699917,3.2,785264.994707376,785264.994707376,785267.394703298,2.4,785268.888879332,NaN,NaN,66,Shorter,Index,999,Missed,Missed
204,Temporal,4132,2,4,80,400,2.5,1.25,2,r,r,0,800,0,400,S,=,L,0.271292275631207,0.287983361630303,1.2630323072415,1.98197337833368,1.71869758657175,785273.688898556,785273.974943736,785273.974943736,785277.174819936,3.2,785278.464951881,785278.464951881,785281.665000993,3.2,785283.788905325,785284.464220809,0.675315484520979,78,Equals to,Middle,78,=,Middle
204,Temporal,4132,2,4,81,400,5,5,2,l,l,-1600,-1200,-1600,-1200,=,L,S,0.281573912132685,0.353995746528185,1.81116706104626,1.08058470655044,1.50765575710146,785286.338930363,785286.635337123,785286.635337123,785287.434821815,0.8,785289.285067056,785289.285067056,785290.084884741,0.8,785291.322290371,785291.936246727,0.613956356304698,66,Equals to,Index,66,=,Index
204,Temporal,4132,2,4,82,400,5,5,2,r,r,0,800,0,400,L,S,=,0.388520881206513,0.45746095987041,1.64770768070119,1.66200339882228,1.73744553099787,785293.589052508,785293.995188258,785293.995188258,785295.595007804,1.6,785297.265231556,785297.265231556,785298.065226324,0.8,785299.872332733,785300.248249946,0.375917212571949,78,Shorter,Middle,78,S,Middle
204,Temporal,4132,2,4,83,800,5,5,1,m,m,-800,400,-800,0,L,S,=,0.489144137576703,0.217032945253577,1.97920194261462,1.04624655852721,1.85290119238178,785302.139072094,785302.645540867,785302.645540867,785305.045349441,2.4,785307.045315472,785307.045315472,785308.645247619,1.6,785309.839103266,785310.296240619,0.45713735348545,78,Shorter,Middle,77,=,Ring
204,Temporal,4132,2,4,84,800,7.5,3.33333333333333,1,r,r,0,1200,0,800,L,S,=,0.469637107674558,0.420596401882955,1.29706997982904,1.92168464608269,1.77610162021979,785312.289113365,785312.775429366,785312.775429366,785314.375308581,1.6,785315.70575762,785315.70575762,785318.10529223,2.4,785320.172434203,785320.536185968,0.36375176475849,66,Longer,Index,66,L,Index
204,Temporal,4132,2,4,85,400,2.5,5,2,r,r,0,400,0,400,L,S,=,0.371307162539057,0.402880909643721,1.82707786026827,1.65758887283766,1.4263039412238,785322.455820613,785322.84559226,785322.84559226,785324.445428808,1.6,785326.295412915,785326.295412915,785327.095414099,0.8,785328.889193813,785329.304211262,0.415017449180596,78,Shorter,Middle,78,S,Middle
204,Temporal,4132,2,4,86,1200,6.66666666666667,7.5,1,r,r,0,1600,0,1200,S,=,L,0.445571322212444,0.397768829618155,1.04563101504998,1.69228921418316,1.49830558938244,785330.872520081,785331.335893618,785331.335893618,785333.73566947,2.4,785334.815785918,785334.815785918,785336.415551248,1.6,785338.255853912,785338.736214262,0.480360350338742,66,Shorter,Index,66,S,Index
204,Temporal,4132,2,4,87,800,3.75,3.33333333333333,1,m,m,-800,400,-800,0,S,=,L,0.350614460333905,0.430255270868232,1.00972602620884,1.14757703020367,1.11184870131664,785340.38927059,785340.755749776,785340.755749776,785343.955785414,3.2,785344.995816388,785344.995816388,785347.39567629,2.4,785348.689307777,785349.224253646,0.534945869701914,66,Shorter,Index,78,=,Middle
204,Temporal,4132,2,4,88,1200,10,5,1,m,m,-800,800,-800,400,S,=,L,0.403545419958291,0.334931674328592,1.10932752458104,1.02017042608858,1.67971858629872,785350.489299494,785350.906053143,785350.906053143,785352.505877501,1.6,785353.64615424,785353.64615424,785356.045921752,2.4,785357.206000984,785358.752190515,1.54618953168392,77,Longer,Ring,78,=,Middle
204,Temporal,4132,2,4,89,1600,7.5,20,2,l,l,-1600,-400,-1600,0,=,L,S,0.397954654208172,0.432491061500818,1.61160107700995,1.74651875197381,1.1045011300107,785360.589360799,785361.006145566,785361.006145566,785362.605973773,1.6,785364.246265109,785364.246265109,785365.046082474,0.8,785366.939406681,785367.448232366,0.508825684664771,77,Shorter,Ring,77,S,Ring
204,Temporal,4132,2,4,90,1200,5,5,1,r,r,0,1600,0,1200,S,=,L,0.36863467254293,0.357452428115531,1.09697226840431,1.01384781314654,1.61243630770889,785368.706052152,785369.086327743,785369.086327743,785372.286195281,3.2,785373.416237479,785373.416237479,785375.816103156,2.4,785376.989396216,785377.424131806,0.434735590242781,66,Shorter,Index,78,=,Middle
204,Temporal,4132,2,4,91,1200,20,7.5,1,r,r,0,1600,0,1200,=,L,S,0.316938228312818,0.344671327041645,1.84336095758241,1.40613663839533,1.38045835479786,785379.172793822,785379.506396914,785379.506396914,785380.306170329,0.8,785382.186394502,785382.186394502,785383.786193837,1.6,785385.339443005,785385.792353945,0.452910939930007,78,Longer,Middle,78,L,Middle
204,Temporal,4132,2,4,92,800,7.5,3.33333333333333,1,l,l,-1600,-400,-1600,-800,L,S,=,0.381118705920941,0.239619918536047,1.68306834309493,1.8636317505565,1.24760539821378,785387.322830281,785387.7166636,785387.7166636,785389.316190253,1.6,785391.036770273,785391.036770273,785393.436257404,2.4,785395.456178948,785396.032260155,0.57608120655641,66,Longer,Index,77,=,Ring
204,Temporal,4132,2,4,93,400,3.33333333333333,1.25,2,m,m,-800,0,-800,-400,S,=,L,0.405510296413642,0.244841372915937,1.12429918471947,1.22761946026873,1.81578525586053,785397.439590285,785397.85675841,785397.85675841,785400.256555756,2.4,785401.416799524,785401.416799524,785404.61663466,3.2,785406.00627582,785408.008186542,2.00191072258167,77,Longer,Ring,77,L,Ring
204,Temporal,4132,2,4,94,800,5,5,1,l,l,-1600,-1200,-1600,-800,L,S,=,0.442500371905036,0.366987258581227,1.7851195101482,1.85955933444872,1.57979860412747,785409.972939402,785410.426822336,785410.426822336,785411.226659911,0.8,785413.037077601,785413.037077601,785414.636580836,1.6,785416.639612163,785418.880148108,2.240535944351,66,Longer,Index,77,=,Ring
204,Temporal,4132,2,4,95,800,15,5,1,m,m,-800,400,-800,0,S,=,L,0.377470376385323,0.201670115167751,1.91962055319526,1.79946497606373,1.88687070188143,785420.589271616,785420.97686149,785420.97686149,785421.776931004,0.8,785423.726999835,785423.726999835,785425.326766128,1.6,785427.273046107,785427.880154524,0.607108416734263,77,Longer,Ring,78,=,Middle
204,Temporal,4132,2,4,96,800,2.5,3.33333333333333,1,m,m,-800,-400,-800,0,L,S,=,0.324251922128649,0.225028186618254,1.50673897004437,1.62088416493095,1.61798455675405,785429.906422742,785430.247044016,785430.247044016,785431.846822499,1.6,785433.377216104,785433.377216104,785435.777017941,2.4,785437.539741414,785437.992217347,0.452475932659581,66,Longer,Index,77,=,Ring
