Subject,Task,SequenceOrder,ListNo,RunNo,TrialNo,Aud_Probe_Dist,Aud_Standard_Vel,Aud_Probe_Vel,Main_Control,Aud_Std_StartCode,Aud_Probe_StartCode,Aud_Std_StartPt,Aud_Std_EndPt,Aud_Probe_StartPt,Aud_Probe_EndPt,RespIndex,RespMiddle,RespRing,ISI_Cross_Std,ISI_Cross_Probe,ISI_Std_Probe,ISI_Probe_Response,ITI,TrialOnset,StdOnset,StdOnsetByStop,StdOffset,StdDur,ProbeOnset,ProbeOnsetByStop,ProbeOffset,ProbeDur,RespWinStart,RespTime,RT,CorrectKC,CorrectResponse,CorrectFinger,SubjRespKC,SubjResponse,SubjRespFinger
302,Spatial,2314,3,2,1,800,5,5,1,m,m,-800,-400,-800,0,=,L,S,0.284066549869836,0.476817048294002,1.7889325439638,1.91901706379546,1.58812078586169,260945.133665941,260945.428845312,260945.428845312,260946.235226603,0.8,260948.0556886,260948.0556886,260949.655526752,1.6,260951.717044854,260952.118483993,0.401439139328431,78,Longer,Middle,77,S,Ring
302,Spatial,2314,3,2,2,1200,20,7.5,1,r,r,0,1600,0,1200,=,L,S,0.491603708991279,0.381807098292795,1.43809923597706,1.4466971041964,1.34212013446132,260953.850421967,260954.355841077,260954.355841077,260955.155577278,0.8,260956.615364962,260956.615364962,260958.215392708,1.6,260959.817075577,260960.078645536,0.261569959344342,77,Shorter,Ring,77,S,Ring
302,Spatial,2314,3,2,3,1200,20,7.5,1,m,m,-800,800,-800,400,=,L,S,0.40962715600184,0.391470471596222,1.07431353676998,1.64077431316869,1.20981573371461,260961.567152329,260961.995903967,260961.995903967,260962.795440629,0.8,260963.905704752,260963.905704752,260965.505494463,1.6,260967.283763031,260967.670675407,0.386912375222892,77,Shorter,Ring,77,S,Ring
302,Spatial,2314,3,2,4,1200,5,5,1,l,l,-1600,0,-1600,-400,L,S,=,0.40228084320435,0.401838580923072,1.05703205070844,1.66774891458081,1.51347637505061,260969.03382631,260969.456002151,260969.456002151,260972.655832476,3.2,260973.73595534,260973.73595534,260976.135802731,2.4,260977.950521768,260978.334724651,0.384202882793034,78,Shorter,Middle,78,S,Middle
302,Spatial,2314,3,2,5,800,5,5,1,r,r,0,1200,0,800,=,L,S,0.495758907723353,0.464705430677478,1.95791479187536,1.89497315284806,1.24908684296258,260980.000559158,260980.516018724,260980.516018724,260982.915937975,2.4,260984.90593605,260984.90593605,260986.505981761,1.6,260988.550577459,260988.774662685,0.224085225519957,77,Shorter,Ring,66,=,Index
302,Spatial,2314,3,2,6,800,2.5,3.33333333333333,1,m,m,-800,-400,-800,0,S,=,L,0.489824137180122,0.311459309594298,1.52622863207353,1.06382565802484,1.91870189221031,260990.167285012,260990.676216902,260990.676216902,260992.276123386,1.6,260993.826367888,260993.826367888,260996.226165555,2.4,260997.433957004,260998.398581222,0.964624217507662,77,Longer,Ring,77,L,Ring
302,Spatial,2314,3,2,7,1600,5,5,2,r,r,0,1200,0,1600,L,S,=,0.498588049979761,0.432201948506406,1.68539669704967,1.79955655499273,1.03392667691417,261000.46734959,261000.976423916,261000.976423916,261003.376034876,2.4,261005.086281547,261005.086281547,261008.28632713,3.2,261010.234041953,261010.486714152,0.252672199218068,66,Longer,Index,77,=,Ring
302,Spatial,2314,3,2,8,800,1.66666666666667,5,1,m,m,-800,-400,-800,0,S,=,L,0.264082037132951,0.213102055647106,1.67640587262526,1.62752995117939,1.48342248950587,261011.667397132,261011.9465239,261011.9465239,261014.346305206,2.4,261016.05645275,261016.05645275,261017.656232195,1.6,261019.433669887,261019.670640439,0.236970552650746,77,Longer,Ring,78,=,Middle
302,Spatial,2314,3,2,9,1600,15,20,2,r,r,0,1200,0,1600,S,=,L,0.414496220593038,0.241684772668822,1.97921709764215,1.06508230569588,1.3340465775194,261021.300782211,261021.726744156,261021.726744156,261022.52623719,0.8,261024.526648493,261024.526648493,261025.326450459,0.8,261026.53413059,261026.82256193,0.288431339897215,77,Longer,Ring,78,=,Middle
302,Spatial,2314,3,2,10,800,7.5,3.33333333333333,1,r,r,0,1200,0,800,=,L,S,0.256197125443082,0.317363587440918,1.33190135832952,1.57173907189488,1.37262481014866,261028.300837389,261028.576703848,261028.576703848,261030.176622521,1.6,261031.526806649,261031.526806649,261033.926700235,2.4,261035.634179384,261035.822772376,0.188592991966289,77,Shorter,Ring,77,S,Ring
302,Spatial,2314,3,2,11,400,3.33333333333333,1.25,2,r,r,0,800,0,400,L,S,=,0.387694853606415,0.336150231547565,1.20144662158919,1.74864345848909,1.45617382031936,261037.334230295,261037.736860322,261037.736860322,261040.136699372,2.4,261041.366866395,261041.366866395,261044.566597592,3.2,261046.467593399,261046.694763776,0.2271703768929,78,Shorter,Middle,77,=,Ring
302,Spatial,2314,3,2,12,1600,5,5,2,m,m,-800,800,-800,800,S,=,L,0.26372315038125,0.225142724432587,1.84613153489845,1.58483038587906,1.7993631836317,261048.300961539,261048.577027537,261048.577027537,261051.776875826,3.2,261053.647066601,261053.647066601,261056.84686292,3.2,261058.584325172,261058.758556186,0.174231013923418,78,Equals to,Middle,78,=,Middle
302,Spatial,2314,3,2,13,800,7.5,3.33333333333333,1,m,m,-800,400,-800,0,S,=,L,0.457659285272555,0.419230571832372,1.36779292355802,1.40457888692691,1.91305303687664,261060.701016525,261061.177274105,261061.177274105,261062.777108728,1.6,261064.167147674,261064.167147674,261066.566915506,2.4,261068.117721768,261068.310669003,0.192947235453175,66,Shorter,Index,77,L,Ring
302,Spatial,2314,3,2,14,1200,3.33333333333333,7.5,1,l,l,-1600,-800,-1600,-400,=,L,S,0.254993090409148,0.498173673613552,1.28579827861992,1.13168463161504,1.9062732331185,261070.384404026,261070.65742433,261070.65742433,261073.057222639,2.4,261074.367361392,261074.367361392,261075.967242211,1.6,261077.251081984,261077.53455469,0.28347270571976,78,Longer,Middle,66,=,Index
302,Spatial,2314,3,2,15,400,5,5,2,r,r,0,800,0,400,S,=,L,0.387273201487578,0.400896051024938,1.83484062486553,1.89873723866848,1.0354060881931,261079.584457664,261079.987234617,261079.987234617,261081.587119928,1.6,261083.447617995,261083.447617995,261084.247114237,0.8,261086.301185388,261086.510593038,0.20940764984698,66,Shorter,Index,66,S,Index
302,Spatial,2314,3,2,16,800,3.75,3.33333333333333,1,l,l,-1600,-400,-1600,-800,=,L,S,0.36677000582583,0.378163655893286,1.19767965027963,1.51182288189133,1.88668227978373,261087.701192324,261088.087602609,261088.087602609,261091.287423952,3.2,261092.517631395,261092.517631395,261094.917466596,2.4,261096.584525032,261096.918551618,0.334026586147957,77,Shorter,Ring,66,=,Index
302,Spatial,2314,3,2,17,800,3.75,3.33333333333333,1,l,l,-1600,-400,-1600,-800,S,=,L,0.2133652711881,0.359230338547435,1.99910175905409,1.38500372199141,1.51556066930639,261098.951259933,261099.177584641,261099.177584641,261102.377441913,3.2,261104.397788485,261104.397788485,261106.797590643,2.4,261108.334649417,261108.526660077,0.192010660539381,66,Shorter,Index,66,S,Index
302,Spatial,2314,3,2,18,1200,2.5,5,1,m,m,-800,0,-800,400,S,=,L,0.382114716312027,0.235519124239476,1.38897908382171,1.05271160585804,1.27589450192583,261110.201300274,261110.59800092,261110.59800092,261113.79762529,3.2,261115.217740692,261115.217740692,261117.617649036,2.4,261118.817971897,261119.062732802,0.244760904781288,77,Longer,Ring,77,L,Ring
302,Spatial,2314,3,2,19,1200,10,7.5,1,l,l,-1600,-800,-1600,-400,S,=,L,0.447673261976383,0.351160473547302,1.0105714746352,1.38736175835542,1.90357954770597,261120.484726143,261120.948059258,261120.948059258,261121.747842617,0.8,261122.797850849,261122.797850849,261124.397770164,1.6,261125.934741311,261126.134484306,0.199742995086126,77,Longer,Ring,77,L,Ring
302,Spatial,2314,3,2,20,400,2.5,5,2,r,r,0,400,0,400,L,S,=,0.377613606666827,0.440023741675325,1.92175419844537,1.07105245895116,1.32420962357167,261128.18473535,261128.577851677,261128.577851677,261130.177814621,1.6,261132.138050625,261132.138050625,261132.938041864,0.8,261134.15134918,261134.398661743,0.247312562714797,77,Equals to,Ring,66,L,Index
302,Spatial,2314,3,2,21,1200,6.66666666666667,7.5,1,l,l,-1600,0,-1600,-400,=,L,S,0.387089216842292,0.213062171640935,1.667912520477,1.73143212176231,1.80176164998902,261135.868104565,261136.268146362,261136.268146362,261138.668038986,2.4,261140.368140299,261140.368140299,261141.967955353,1.6,261143.85146329,261144.046609942,0.195146652957192,77,Shorter,Ring,66,=,Index
302,Spatial,2314,3,2,22,400,10,5,2,r,r,0,800,0,400,S,=,L,0.281600177362713,0.424938890160781,1.40957535365299,1.61610323838664,1.60880572075731,261146.001471197,261146.298313606,261146.298313606,261147.098114288,0.8,261148.538142182,261148.538142182,261149.338159085,0.8,261151.101507159,261151.294630836,0.193123676493997,66,Shorter,Index,78,=,Middle
302,Spatial,2314,3,2,23,800,2.5,3.33333333333333,1,l,l,-1600,-1200,-1600,-800,L,S,=,0.349346352764288,0.263611115424859,1.4513138955912,1.84736119190177,1.02223023127999,261153.051574672,261153.418447803,261153.418447803,261155.018342417,1.6,261156.498329389,261156.498329389,261158.898231958,2.4,261160.901605046,261161.150721692,0.249116645514732,66,Longer,Index,77,=,Ring
302,Spatial,2314,3,2,24,1200,20,7.5,1,l,l,-1600,0,-1600,-400,=,L,S,0.224742807721434,0.486100576483186,1.88470373246217,1.83701513006801,1.29357191713932,261162.318253401,261162.558514703,261162.558514703,261163.358331426,0.8,261165.268619866,261165.268619866,261166.868466038,1.6,261168.85160733,261169.006632257,0.155024927895283,77,Shorter,Ring,77,S,Ring
302,Spatial,2314,3,2,25,800,1.66666666666667,5,1,m,m,-800,-400,-800,0,L,S,=,0.37286615501371,0.233730507633466,1.81837846868506,1.79992010590369,1.28544253800493,261170.651663085,261171.03863734,261171.03863734,261173.438525152,2.4,261175.288736387,261175.288736387,261176.888540855,1.6,261178.834976641,261179.030638502,0.195661860721884,66,Longer,Index,66,L,Index
302,Spatial,2314,3,2,26,1600,7.5,20,2,l,l,-1600,-400,-1600,0,L,S,=,0.284790593715048,0.371028554312229,1.4764172530918,1.60432893385612,1.84971890756644,261180.468345359,261180.768524748,261180.768524748,261182.368532604,1.6,261183.878751301,261183.878751301,261184.678605558,0.8,261186.434623951,261186.726542407,0.29191845600144,66,Longer,Index,66,L,Index
302,Spatial,2314,3,2,27,1600,10,20,2,m,m,-800,800,-800,800,=,L,S,0.290988973268157,0.281981108153687,1.66168465067723,1.53255126329618,1.3596556600385,261188.735060017,261189.038759244,261189.038759244,261190.638535161,1.6,261192.328852017,261192.328852017,261193.128720389,0.8,261194.818464292,261194.990506511,0.172042218706338,66,Equals to,Index,66,=,Index
302,Spatial,2314,3,2,28,800,15,5,1,m,m,-800,400,-800,0,S,=,L,0.468433753754933,0.256577908026469,1.46404303880557,1.8981745285386,1.32012450429752,261196.485143185,261196.969189834,261196.969189834,261197.76867966,0.8,261199.269040116,261199.269040116,261200.868896875,1.6,261202.918448962,261203.110302584,0.191853621974587,66,Shorter,Index,77,L,Ring
302,Spatial,2314,3,2,29,400,2.5,1.25,2,m,m,-800,0,-800,-400,S,=,L,0.241223700671722,0.203709972323433,1.76377832057191,1.31617688624611,1.93811231488909,261204.585182997,261204.839237175,261204.839237175,261208.039006226,3.2,261209.829176829,261209.829176829,261213.029006833,3.2,261214.501910642,261214.710629994,0.208719351678155,66,Shorter,Index,78,=,Middle
302,Spatial,2314,3,2,30,1600,5,5,2,m,m,-800,800,-800,800,=,L,S,0.43136533194827,0.45192764090731,1.53246022222474,1.01755837505572,1.73432817435056,261216.80186989,261217.249324917,261217.249324917,261220.449228385,3.2,261222.019309349,261222.019309349,261225.219104706,3.2,261226.385250301,261226.614493699,0.229243398440303,66,Equals to,Index,78,L,Middle
302,Spatial,2314,3,2,31,400,2.5,5,2,m,m,-800,-400,-800,-400,=,L,S,0.383569989119208,0.212134522441686,1.23898176150189,1.83466671152231,1.14548844444074,261228.501962505,261228.899348063,261228.899348063,261230.499172742,1.6,261231.769334772,261231.769334772,261232.569131926,0.8,261234.551974872,261234.710594385,0.15861951262923,66,Equals to,Index,66,=,Index
302,Spatial,2314,3,2,32,400,1.66666666666667,1.25,2,l,l,-1600,-1200,-1600,-1200,=,L,S,0.310135377686522,0.325188885770127,1.60827553022214,1.82643149339285,1.34061192304081,261236.018661685,261236.339389075,261236.339389075,261238.739281378,2.4,261240.379673767,261240.379673767,261243.579492543,3.2,261245.568679345,261245.750547368,0.181868022773415,66,Equals to,Index,77,S,Ring
302,Spatial,2314,3,2,33,400,10,5,2,r,r,0,800,0,400,=,L,S,0.246763796714899,0.33726425741355,1.35645343206024,1.43537504189217,1.25738785239641,261247.235393491,261247.499684777,261247.499684777,261248.299615063,0.8,261249.689632515,261249.689632515,261250.489387002,0.8,261252.068795565,261252.390493165,0.321697600826155,77,Shorter,Ring,66,=,Index
302,Spatial,2314,3,2,34,800,15,5,1,l,l,-1600,-400,-1600,-800,L,S,=,0.302810375030396,0.409826671059979,1.89203140189738,1.56971592460174,1.42799706566186,261253.785451251,261254.099375716,261254.099375716,261254.89939679,0.8,261256.829916277,261256.829916277,261258.429775282,1.6,261260.152106914,261260.37446783,0.222360915562604,78,Shorter,Middle,77,=,Ring
302,Spatial,2314,3,2,35,1600,3.75,5,2,l,l,-1600,-400,-1600,0,L,S,=,0.436020138462159,0.354667133956148,1.3557270066541,1.03006151688384,1.82843889761589,261261.952157537,261262.399896153,261262.399896153,261265.59979128,3.2,261266.990143969,261266.990143969,261270.189671457,3.2,261271.368900147,261271.598667261,0.229767113545677,66,Longer,Index,78,S,Middle
302,Spatial,2314,3,2,36,400,1.25,1.25,2,r,r,0,400,0,400,=,L,S,0.297262067148795,0.277748517158622,1.01398941332396,1.72104026278008,1.97430711720437,261273.585279237,261273.900220644,261273.900220644,261277.099666007,3.2,261278.150064975,261278.150064975,261281.349921606,3.2,261283.218892727,261283.40666607,0.187773343204753,66,Equals to,Index,78,L,Middle
302,Spatial,2314,3,2,37,800,5,5,1,l,l,-1600,-400,-1600,-800,L,S,=,0.360616654474181,0.345514677662204,1.70525873102279,1.11368952068836,1.72730561192903,261285.518973344,261285.89035695,261285.89035695,261288.2898999,2.4,261290.020223313,261290.020223313,261291.620058899,1.6,261292.885679801,261293.278572137,0.392892335745273,78,Shorter,Middle,66,L,Index
302,Spatial,2314,3,2,38,1600,5,5,2,r,r,0,1200,0,1600,=,L,S,0.495256418247821,0.329365231718078,1.01188262220138,1.18673416631225,1.07174839174419,261295.168977563,261295.680179447,261295.680179447,261298.080087149,2.4,261299.130456925,261299.130456925,261302.330334728,3.2,261303.66901654,261303.790591459,0.121574918943224,78,Longer,Middle,77,S,Ring
302,Spatial,2314,3,2,39,1600,6.66666666666667,5,2,m,m,-800,800,-800,800,S,=,L,0.201115151717565,0.412350341162624,1.95957698295685,1.06413300856194,1.68411593121136,261305.002398315,261305.220487077,261305.220487077,261307.620279611,2.4,261309.610666819,261309.610666819,261312.810499068,3.2,261314.019136852,261314.198228276,0.179091423487989,78,Equals to,Middle,77,L,Ring
302,Spatial,2314,3,2,40,1200,5,5,1,r,r,0,800,0,1200,=,L,S,0.382236316043517,0.421566324510814,1.25373182108146,1.08900315716635,1.53642622854639,261316.035802449,261316.430407296,261316.430407296,261318.030380185,1.6,261319.320553836,261319.320553836,261321.720381658,2.4,261322.952085677,261323.126474205,0.174388527608244,78,Longer,Middle,77,S,Ring
302,Spatial,2314,3,2,41,400,2.5,1.25,2,m,m,-800,0,-800,-400,=,L,S,0.290141692818457,0.386310959447032,1.48008746951948,1.56134041558455,1.15797266346726,261324.819177791,261325.120587135,261325.120587135,261328.320431896,3.2,261329.830814202,261329.830814202,261333.030628165,3.2,261334.752535056,261334.966482943,0.213947887037648,77,Shorter,Ring,78,L,Middle
302,Spatial,2314,3,2,42,800,1.25,3.33333333333333,1,m,m,-800,-400,-800,0,S,=,L,0.259036854032243,0.279594955653387,1.24779187466938,1.78820631527653,1.98474454978745,261336.269250597,261336.541082652,261336.541082652,261339.740564586,3.2,261341.01101213,261341.01101213,261343.41087107,2.4,261345.335921883,261345.582561083,0.246639199613128,77,Longer,Ring,66,S,Index
302,Spatial,2314,3,2,43,800,1.25,3.33333333333333,1,l,l,-1600,-1200,-1600,-800,L,S,=,0.366253093703538,0.366229601067521,1.58387289276879,1.3421578721312,1.78345427630211,261347.719295493,261348.101215836,261348.101215836,261351.301021138,3.2,261352.921283531,261352.921283531,261355.32107767,2.4,261356.802705186,261357.014603542,0.211898355424637,66,Longer,Index,78,S,Middle
302,Spatial,2314,3,2,44,1200,6.66666666666667,7.5,1,r,r,0,1600,0,1200,=,L,S,0.456158261978678,0.353090277610048,1.32960828319597,1.19487215083221,1.22568183935852,261358.952700013,261359.42102288,261359.42102288,261361.820875083,2.4,261363.181271296,261363.181271296,261364.781078651,1.6,261366.136065539,261366.942404519,0.806338980415603,77,Shorter,Ring,66,=,Index
302,Spatial,2314,3,2,45,400,5,5,2,m,m,-800,0,-800,-400,S,=,L,0.484445263832888,0.271780396559446,1.43446657804365,1.59334649128949,1.20284890836295,261368.302753218,261368.801449604,261368.801449604,261370.401252468,1.6,261371.871196097,261371.871196097,261372.671055807,0.8,261374.419481569,261374.678457418,0.258975848788396,66,Shorter,Index,66,S,Index
302,Spatial,2314,3,2,46,800,5,5,1,m,m,-800,-400,-800,0,S,=,L,0.361248250166215,0.299902969815396,1.34073233300842,1.30700167987714,1.39927707607218,261376.036140895,261376.411397862,261376.411397862,261377.211149783,0.8,261378.57152771,261378.57152771,261380.17137292,1.6,261381.619471261,261381.758525389,0.139054128580028,77,Longer,Ring,77,L,Ring
302,Spatial,2314,3,2,47,1200,10,7.5,1,l,l,-1600,-800,-1600,-400,L,S,=,0.201722147413475,0.377102572967593,1.13747589081002,1.3948394255148,1.554265669893,261383.302837909,261383.521450541,261383.521450541,261384.321294211,0.8,261385.491590946,261385.491590946,261387.091383865,1.6,261388.636231803,261388.902450252,0.26621844957117,66,Longer,Index,77,=,Ring
302,Spatial,2314,3,2,48,800,5,5,1,r,r,0,1200,0,800,L,S,=,0.215633183241442,0.231169232929915,1.23595494112131,1.34498667478333,1.37013729866298,261390.60288388,261390.83178559,261390.83178559,261393.23158454,2.4,261394.501571092,261394.501571092,261396.101402507,1.6,261397.602871048,261397.838383556,0.235512508224929,78,Shorter,Middle,66,L,Index
302,Spatial,2314,3,2,49,1200,10,7.5,1,m,m,-800,0,-800,400,L,S,=,0.366420028083247,0.239672279134345,1.65254927139378,1.12919039441636,1.15309577162777,261400.752926114,261401.131719921,261401.131719921,261401.931524133,0.8,261403.621906112,261403.621906112,261405.221752605,1.6,261406.502935818,261406.79052377,0.287587951839669,66,Longer,Index,77,=,Ring
302,Spatial,2314,3,2,50,800,7.5,3.33333333333333,1,l,l,-1600,-400,-1600,-800,=,L,S,0.29323651555781,0.379956457093168,1.57338579166967,1.39129026410165,1.73535333972325,261408.086300189,261408.391931927,261408.391931927,261409.991789006,1.6,261411.591890607,261411.591890607,261413.991698861,2.4,261415.519634517,261415.758583455,0.238948937621899,77,Shorter,Ring,77,S,Ring
302,Spatial,2314,3,2,51,1200,20,7.5,1,r,r,0,1600,0,1200,S,=,L,0.27665175009941,0.295686370409631,1.68030932013629,1.35728286547907,1.62278152954076,261417.636351213,261417.931951476,261417.931951476,261418.731778144,0.8,261420.452165682,261420.452165682,261422.051951544,1.6,261423.553012025,261423.814445643,0.261433618550655,66,Shorter,Index,77,L,Ring
302,Spatial,2314,3,2,52,1200,3.33333333333333,7.5,1,l,l,-1600,-800,-1600,-400,S,=,L,0.490507859873781,0.498345371052233,1.9518889008394,1.07928320211482,1.28686452155605,261425.586430274,261426.092107309,261426.092107309,261428.491908826,2.4,261430.472317492,261430.472317492,261432.072080897,1.6,261433.30308204,261433.606524981,0.303442941716639,77,Longer,Ring,66,S,Index
302,Spatial,2314,3,2,53,800,3.75,3.33333333333333,1,r,r,0,1200,0,800,S,=,L,0.213128004509554,0.35069902949459,1.79058426558557,1.87553216933344,1.45241519272425,261435.036470358,261435.262259648,261435.262259648,261438.462104088,3.2,261440.27237036,261440.27237036,261442.672235075,2.4,261444.68654526,261445.406482251,0.719936990411952,66,Shorter,Index,66,S,Index
302,Spatial,2314,3,2,54,1200,2.5,5,1,l,l,-1600,-800,-1600,-400,L,S,=,0.203543403204499,0.35196000556512,1.63420580654978,1.95237017269309,1.46939344340582,261447.003170164,261447.222547587,261447.222547587,261450.422330754,3.2,261452.082123634,261452.082123634,261454.482236971,2.4,261456.586561803,261456.814401052,0.227839248778764,66,Longer,Index,78,S,Middle
302,Spatial,2314,3,2,55,1200,3.33333333333333,7.5,1,l,l,-1600,-800,-1600,-400,S,=,L,0.373744030394068,0.37330304577559,1.17519352393442,1.90741834676945,1.83775516056809,261458.436607148,261458.822528852,261458.822528852,261461.222397096,2.4,261462.422719922,261462.422719922,261464.022575718,1.6,261466.069984219,261466.310402096,0.240417877590517,77,Longer,Ring,78,=,Middle
302,Spatial,2314,3,2,56,1200,3.33333333333333,7.5,1,m,m,-800,0,-800,400,=,L,S,0.287774763267711,0.257004378122133,1.88682204048695,1.44113660329754,1.4981262152494,261468.303292806,261468.602604106,261468.602604106,261471.002433853,2.4,261472.922945927,261472.922945927,261474.52242831,1.6,261476.103338617,261476.286496263,0.183157646213658,78,Longer,Middle,66,=,Index
302,Spatial,2314,3,2,57,800,2.5,3.33333333333333,1,l,l,-1600,-1200,-1600,-800,S,=,L,0.472993356107152,0.260370843007963,1.44173709582882,1.95471198019989,1.36134512756823,261477.936704832,261478.422879681,261478.422879681,261480.022701152,1.6,261481.492668199,261481.492668199,261483.892546708,2.4,261485.986771617,261486.262566691,0.275795073946938,77,Longer,Ring,77,L,Ring
302,Spatial,2314,3,2,58,800,7.5,3.33333333333333,1,m,m,-800,400,-800,0,L,S,=,0.25587084491579,0.281288686102488,1.79430374340833,1.29598776226275,1.03271108554378,261487.786741516,261488.062841198,261488.062841198,261489.662700523,1.6,261491.483217056,261491.483217056,261493.882652216,2.4,261495.336774254,261495.590455696,0.253681441827212,78,Shorter,Middle,77,=,Ring
302,Spatial,2314,3,2,59,1200,5,5,1,m,m,-800,800,-800,400,=,L,S,0.448829745127934,0.458866906028353,1.88796411369236,1.82022572498562,1.02643707367882,261496.770149003,261497.232991612,261497.232991612,261500.432900212,3.2,261502.353193499,261502.353193499,261504.753045382,2.4,261506.719740446,261506.99029799,0.270557543990435,77,Shorter,Ring,78,L,Middle
302,Spatial,2314,3,2,60,800,1.25,3.33333333333333,1,m,m,-800,-400,-800,0,S,=,L,0.367361303021574,0.398157415802349,1.57597772666542,1.38434124238531,1.36448941325707,261508.170202384,261508.553207678,261508.553207678,261511.753029662,3.2,261513.363337895,261513.363337895,261515.763272545,2.4,261517.286469637,261517.446398342,0.159928705019411,77,Longer,Ring,78,=,Middle
302,Spatial,2314,3,2,61,1200,10,5,1,l,l,-1600,0,-1600,-400,L,S,=,0.497074895750637,0.468785145780475,1.05901544725842,1.29165354234756,1.40984792052478,261518.970285087,261519.48335083,261519.48335083,261521.083177433,1.6,261522.173153405,261522.173153405,261524.573110832,2.4,261526.003658531,261526.174483164,0.170824633067241,78,Shorter,Middle,77,=,Ring
302,Spatial,2314,3,2,62,1200,6.66666666666667,7.5,1,l,l,-1600,0,-1600,-400,L,S,=,0.301012824575331,0.494325180858493,1.0877007564336,1.87212939551733,1.69014485256432,261527.720327834,261528.033434896,261528.033434896,261530.433381415,2.4,261531.553566335,261531.553566335,261533.153371765,1.6,261535.170315948,261535.32643866,0.15612271183636,78,Shorter,Middle,66,L,Index
302,Spatial,2314,3,2,63,1600,20,20,2,r,r,0,1600,0,1600,=,L,S,0.464903754823645,0.483005350885513,1.23728692261021,1.7239515302883,1.24388783018653,261537.153707395,261537.633778346,261537.633778346,261538.433569726,0.8,261539.703383366,261539.703383366,261540.503329371,0.8,261542.37042038,261542.550371505,0.179951124940999,66,Equals to,Index,78,L,Middle
302,Spatial,2314,3,2,64,800,5,5,1,l,l,-1600,-400,-1600,-800,L,S,=,0.290242802623795,0.284228382296286,1.74893002336905,1.23251288204651,1.8374590154056,261543.937089153,261544.243793652,261544.243793652,261546.643701675,2.4,261548.413761851,261548.413761851,261550.013602249,1.6,261551.403752868,261551.598445266,0.194692397519248,78,Shorter,Middle,66,L,Index
302,Spatial,2314,3,2,65,1600,15,20,2,m,m,-800,400,-800,800,=,L,S,0.448606589186739,0.399066672219805,1.02837022024219,1.04476731986869,1.08775468210207,261553.587116469,261554.053591518,261554.053591518,261554.853604892,0.8,261555.913704588,261555.913704588,261556.713690694,0.8,261557.920497745,261558.198503203,0.278005458181724,78,Longer,Middle,78,L,Middle
302,Spatial,2314,3,2,66,800,1.25,3.33333333333333,1,m,m,-800,-400,-800,0,L,S,=,0.33394462276217,0.204380236365149,1.07216498265521,1.65414042561083,1.98159705599176,261559.437184271,261559.784048991,261559.784048991,261562.983575195,3.2,261564.093813975,261564.093813975,261566.493899401,2.4,261568.287193045,261568.534460374,0.247267329628812,66,Longer,Index,66,L,Index
302,Spatial,2314,3,2,67,1200,2.5,5,1,r,r,0,800,0,1200,=,L,S,0.200311982908206,0.263399580238801,1.92153262379739,1.18750735838776,1.45813061395746,261570.670556389,261570.884073404,261570.884073404,261574.083970135,3.2,261576.044344084,261576.044344084,261578.443824157,2.4,261579.77062651,261580.126390796,0.355764286010526,78,Longer,Middle,66,=,Index
302,Spatial,2314,3,2,68,1200,10,5,1,l,l,-1600,0,-1600,-400,S,=,L,0.421546753885421,0.301370673593045,1.00359526704255,1.40009298874123,1.50336342591797,261581.720619764,261582.154121835,261582.154121835,261583.754153752,1.6,261584.794428535,261584.794428535,261587.19396154,2.4,261588.737275154,261588.918496761,0.181221607053885,66,Shorter,Index,77,L,Ring
302,Spatial,2314,3,2,69,1200,10,5,1,l,l,-1600,0,-1600,-400,L,S,=,0.340458017473486,0.417400284092452,1.10484104418337,1.84804448322565,1.09111349403187,261590.570685961,261590.924413274,261590.924413274,261592.524225442,1.6,261593.654292342,261593.654292342,261596.054125297,2.4,261598.054005388,261598.206391079,0.15238569106441,78,Shorter,Middle,77,=,Ring
302,Spatial,2314,3,2,70,800,5,5,1,r,r,0,400,0,800,L,S,=,0.431569669651499,0.422938600781091,1.1601528658023,1.85110574800686,1.91517354999329,261599.437405303,261599.884436872,261599.884436872,261600.684210287,0.8,261601.884445213,261601.884445213,261603.484251606,1.6,261605.487411254,261605.814353573,0.326942318875808,66,Longer,Index,77,=,Ring
302,Spatial,2314,3,2,71,400,1.25,1.25,2,r,r,0,400,0,400,=,L,S,0.337417333256656,0.217940826179223,1.88028746129031,1.29326378184697,1.17750883789331,261607.887423894,261608.244269401,261608.244269401,261611.444283866,3.2,261613.354564285,261613.354564285,261616.554471282,3.2,261618.004198809,261618.206501755,0.202302946330747,66,Equals to,Index,78,L,Middle
302,Spatial,2314,3,2,72,1200,5,5,1,r,r,0,800,0,1200,=,L,S,0.206723208833401,0.422953527387053,1.55269933092523,1.85755610851237,1.29203284743553,261619.520850035,261619.744603195,261619.744603195,261621.344500375,1.6,261622.924794066,261622.924794066,261625.324588525,2.4,261627.320827836,261627.558411761,0.237583925772924,78,Longer,Middle,77,S,Ring
302,Spatial,2314,3,2,73,800,15,5,1,m,m,-800,400,-800,0,L,S,=,0.328902992436451,0.259140173437759,1.48246583649477,1.72345910274317,1.73790982496647,261634.620938288,261634.964969686,261634.964969686,261635.764820734,0.8,261637.28494483,261637.28494483,261638.884782982,1.6,261640.754234985,261640.966360076,0.212125090911286,78,Shorter,Middle,77,=,Ring
302,Spatial,2314,3,2,74,1600,6.66666666666667,5,2,m,m,-800,800,-800,800,=,L,S,0.310734835816546,0.344822105461008,1.40552667418973,1.38543142424634,1.39015167476691,261642.854307519,261643.184941911,261643.184941911,261645.584793793,2.4,261647.025302248,261647.025302248,261650.22509119,3.2,261651.754303637,261651.934270267,0.179966630210401,66,Equals to,Index,77,S,Ring
302,Spatial,2314,3,2,75,1200,6.66666666666667,7.5,1,r,r,0,1600,0,1200,S,=,L,0.33567745430747,0.324787495202433,1.40727781849214,1.9378723861741,1.94876443022863,261653.471023092,261653.82506832,261653.82506832,261656.224874969,2.4,261657.66522976,261657.66522976,261659.26511924,1.6,261661.354425663,261661.51833142,0.163905756984605,66,Shorter,Index,66,S,Index
302,Spatial,2314,3,2,76,1600,10,20,2,m,m,-800,800,-800,800,L,S,=,0.29778530746254,0.292500662949081,1.31472490551237,1.08611784847846,1.96343027778334,261663.621060192,261663.935448216,261663.935448216,261665.535222529,1.6,261666.88541596,261666.88541596,261667.68523172,0.8,261668.9211129,261669.078391461,0.157278560916893,77,Equals to,Ring,66,L,Index
302,Spatial,2314,3,2,77,1200,5,5,1,m,m,-800,800,-800,400,L,S,=,0.407140866330253,0.497383116286122,1.23528756757918,1.37030431336677,1.08750003565041,261671.187782967,261671.605109889,261671.605109889,261674.805137186,3.2,261676.075663968,261676.075663968,261678.4754796,2.4,261679.987794131,261680.174402322,0.186608190910192,78,Shorter,Middle,78,S,Middle
302,Spatial,2314,3,2,78,800,3.75,3.33333333333333,1,r,r,0,1200,0,800,L,S,=,0.37354286003919,0.270565302638412,1.75869156261004,1.36073320595657,1.70943229393497,261681.40448558,261681.795576364,261681.795576364,261684.995436202,3.2,261686.775548704,261686.775548704,261689.175391604,2.4,261690.687856271,261690.878237091,0.190380820684368,78,Shorter,Middle,66,L,Index
302,Spatial,2314,3,2,79,800,5,5,1,r,r,0,400,0,800,L,S,=,0.497784972041031,0.255191330920893,1.63710312864805,1.34619815039298,1.06720609088394,261692.721255593,261693.23580729,261693.23580729,261694.035572043,0.8,261695.705858673,261695.705858673,261697.305661858,1.6,261698.804621324,261698.990246661,0.185625337384408,66,Longer,Index,77,=,Ring
302,Spatial,2314,3,2,80,800,1.66666666666667,5,1,r,r,0,400,0,800,=,L,S,0.342362294719485,0.425734945029555,1.64469597888486,1.32339266794014,1.00017518210088,261700.204589135,261700.565997727,261700.565997727,261702.965498332,2.4,261704.646019183,261704.646019183,261706.245849636,1.6,261707.704622017,261707.886356265,0.181734248413704,78,Longer,Middle,66,=,Index
302,Spatial,2314,3,2,81,1600,20,20,2,l,l,-1600,0,-1600,0,=,L,S,0.201930104522352,0.421373558643258,1.50505075759339,1.74663704526156,1.86880502795071,261709.037976844,261709.256201947,261709.256201947,261710.055703,0.8,261711.596190314,261711.596190314,261712.395694255,0.8,261714.288048968,261714.510196526,0.222147558670258,66,Equals to,Index,78,L,Middle
302,Spatial,2314,3,2,82,400,1.66666666666667,1.25,2,l,l,-1600,-1200,-1600,-1200,S,=,L,0.369681100580012,0.410282978370214,1.59720932924069,1.74128824556572,1.8096380968021,261716.521438017,261716.906283478,261716.906283478,261719.305784404,2.4,261720.936110031,261720.936110031,261724.13600612,3.2,261726.021408391,261726.286259832,0.264851441490464,78,Equals to,Middle,77,L,Ring
302,Spatial,2314,3,2,83,1200,5,5,1,l,l,-1600,-800,-1600,-400,S,=,L,0.451069700474807,0.492970732385972,1.33132556377707,1.03643218246766,1.90047822152792,261728.238175805,261728.706126221,261728.706126221,261730.30597079,1.6,261731.666265308,261731.666265308,261734.066071958,2.4,261735.254841853,261735.406281749,0.151439896057127,77,Longer,Ring,77,L,Ring
302,Spatial,2314,3,2,84,1200,10,7.5,1,m,m,-800,0,-800,400,S,=,L,0.464744208634549,0.386506917371023,1.00226068738166,1.05652240686933,1.40228187984867,261737.454806879,261737.936483444,261737.936483444,261738.736263595,0.8,261739.776325686,261739.776325686,261741.376143307,1.6,261742.57147353,261742.766281095,0.194807565421797,77,Longer,Ring,77,L,Ring
302,Spatial,2314,3,2,85,800,15,5,1,l,l,-1600,-400,-1600,-800,L,S,=,0.309722170339151,0.217145090985439,1.77444227612445,1.73215866422384,1.25640998222215,261744.321512106,261744.646553318,261744.646553318,261745.446407895,0.8,261747.246352688,261747.246352688,261748.846228054,1.6,261750.721587682,261750.934359129,0.212771447404521,78,Shorter,Middle,77,=,Ring
302,Spatial,2314,3,2,86,400,5,5,2,m,m,-800,-400,-800,-400,L,S,=,0.327278828559484,0.453255568975057,1.28243606241766,1.77074660352341,1.48100374716865,261752.338250905,261752.676566897,261752.676566897,261753.476472803,0.8,261754.786476819,261754.786476819,261755.586261783,0.8,261757.50491677,261757.718190652,0.213273882342037,77,Equals to,Ring,78,S,Middle
302,Spatial,2314,3,2,87,1200,10,5,1,l,l,-1600,0,-1600,-400,S,=,L,0.381777124012198,0.355043713471615,1.63599042680293,1.81431964128003,1.47517532200329,261759.354937413,261759.75683152,261759.75683152,261761.356322565,1.6,261763.026649295,261763.026649295,261765.426431243,2.4,261767.388283482,261767.59823482,0.20995133757242,66,Shorter,Index,77,L,Ring
302,Spatial,2314,3,2,88,800,1.66666666666667,5,1,m,m,-800,-400,-800,0,S,=,L,0.360753903058642,0.281522717361537,1.74143166063231,1.56013995224877,1.64887875313472,261769.221670229,261769.596677292,261769.596677292,261771.996498377,2.4,261773.756514247,261773.756514247,261775.356565733,1.6,261777.071667454,261777.278323515,0.206656060967362,77,Longer,Ring,66,S,Index
302,Spatial,2314,3,2,89,1200,5,5,1,r,r,0,1600,0,1200,=,L,S,0.242716447836844,0.244816150800081,1.56966451375077,1.56597063121055,1.12166975033693,261779.071712687,261779.327011256,261779.327011256,261782.526807576,3.2,261784.127070861,261784.127070861,261786.527019305,2.4,261788.238461342,261789.158312505,0.919851162791019,77,Shorter,Ring,78,L,Middle
302,Spatial,2314,3,2,90,400,5,5,2,r,r,0,400,0,400,=,L,S,0.272097596536424,0.366152978033215,1.15878806578473,1.9366228967978,1.21839328821129,261790.421862085,261790.707010351,261790.707010351,261791.506828678,0.8,261792.697016732,261792.697016732,261793.496844683,0.8,261795.571772838,261795.806375231,0.234602393378736,66,Equals to,Index,78,L,Middle
302,Spatial,2314,3,2,91,1200,5,5,1,r,r,0,800,0,1200,S,=,L,0.237764408147497,0.323061719855449,1.01651380924446,1.73689599262194,1.38220440386279,261797.171850343,261797.427225263,261797.427225263,261799.027075926,1.6,261800.067330499,261800.067330499,261802.467167945,2.4,261804.355214419,261804.630323025,0.275108605535934,77,Longer,Ring,77,L,Ring
302,Spatial,2314,3,2,92,1600,3.75,5,2,r,r,0,1200,0,1600,L,S,=,0.376677424434323,0.430166536329964,1.58220524333389,1.74632605016833,1.9675315107943,261806.171884348,261806.567439732,261806.567439732,261809.767033305,3.2,261811.387114124,261811.387114124,261814.587141101,3.2,261816.488560687,261816.790281885,0.301721198193263,66,Longer,Index,78,S,Middle
302,Spatial,2314,3,2,93,1600,7.5,20,2,l,l,-1600,-400,-1600,0,L,S,=,0.255480007141553,0.457320490992515,1.95478796670793,1.15327937013104,1.84005874220243,261818.905263043,261819.177645594,261819.177645594,261820.7771453,1.6,261822.757689344,261822.757689344,261823.557147411,0.8,261824.855336805,261825.158224606,0.302887800178723,66,Longer,Index,66,L,Index
302,Spatial,2314,3,2,94,400,3.33333333333333,1.25,2,r,r,0,800,0,400,L,S,=,0.497357063480273,0.47253805374844,1.51992949429641,1.91874156425272,1.91796021005358,261827.138676545,261827.647587904,261827.647587904,261830.047451977,2.4,261831.587610469,261831.587610469,261834.78753126,3.2,261836.855336009,261837.06231191,0.206975900393445,78,Shorter,Middle,77,=,Ring
302,Spatial,2314,3,2,95,1200,2.5,5,1,r,r,0,800,0,1200,S,=,L,0.404350157533146,0.29668750479489,1.03726776909771,1.57264356871067,1.91191490318434,261839.122082427,261839.537646864,261839.537646864,261842.737576316,3.2,261843.807744057,261843.807744057,261846.207661704,2.4,261847.9221328,261848.270110667,0.347977866622387,77,Longer,Ring,78,=,Middle
302,Spatial,2314,3,2,96,800,2.5,3.33333333333333,1,l,l,-1600,-1200,-1600,-800,S,=,L,0.234739550910405,0.272265878698352,1.02029047322782,1.98507429280294,1.55192518485273,261850.338769642,261850.587912664,261850.587912664,261852.187642706,1.6,261853.238016011,261853.238016011,261855.637905106,2.4,261857.772115197,261858.054089438,0.281974240235286,77,Longer,Ring,77,L,Ring
