Subject,Task,SequenceOrder,ListNo,RunNo,TrialNo,Aud_Probe_Dist,Aud_Standard_Vel,Aud_Probe_Vel,Main_Control,Aud_Std_StartCode,Aud_Probe_StartCode,Aud_Std_StartPt,Aud_Std_EndPt,Aud_Probe_StartPt,Aud_Probe_EndPt,RespIndex,RespMiddle,RespRing,ISI_Cross_Std,ISI_Cross_Probe,ISI_Std_Probe,ISI_Probe_Response,ITI,TrialOnset,StdOnset,StdOnsetByStop,StdOffset,StdDur,ProbeOnset,ProbeOnsetByStop,ProbeOffset,ProbeDur,RespWinStart,RespTime,RT,CorrectKC,CorrectResponse,CorrectFinger,SubjRespKC,SubjResponse,SubjRespFinger
215,Temporal,2314,4,4,1,400,1.25,1.25,2,r,r,0,400,0,400,=,L,S,0.426021162917305,0.492878467648486,1.64099054568502,1.54124586312428,1.07289361274316,25493.4976757884,25493.9347151116,25493.9347151116,25497.1357345118,3.2,25498.8058668491,25498.8058668491,25502.0058503792,3.2,25503.681098898,25504.1074472297,0.426348331671761,66,Equals to,Index,66,=,Index
215,Temporal,2314,4,4,2,1200,5,5,1,r,r,0,1600,0,1200,S,=,L,0.416638660875145,0.419064867644902,1.74194694495235,1.03768957982948,1.33703951846179,25505.331148029,25505.7661358225,25505.7661358225,25508.9659711419,3.2,25510.7361783545,25510.7361783545,25513.1361406474,2.4,25514.3144791488,25514.6913036309,0.376824482078518,66,Shorter,Index,78,=,Middle
215,Temporal,2314,4,4,3,1200,6.66666666666667,7.5,1,m,m,-800,800,-800,400,=,L,S,0.261984887883135,0.208319495122805,1.22445649073727,1.93850664448318,1.9545434487852,25516.1812047789,25516.4561892874,25516.4561892874,25518.8560299963,2.4,25520.1063702519,25520.1063702519,25521.7060597988,1.6,25523.7812142105,25524.219605439,0.438391228497494,77,Shorter,Ring,77,S,Ring
215,Temporal,2314,4,4,4,1600,7.5,20,2,r,r,0,1200,0,1600,=,L,S,0.362772592492723,0.457799925387888,1.23128245976703,1.17927874204813,1.68847787349592,25526.3312975228,25526.7066045658,25526.7066045658,25528.306155847,1.6,25529.5566006841,25529.5566006841,25530.3564576256,0.8,25531.6812487288,25532.075462292,0.394213563129597,77,Shorter,Ring,77,S,Ring
215,Temporal,2314,4,4,5,1200,6.66666666666667,7.5,1,r,r,0,1600,0,1200,S,=,L,0.469929841138429,0.273558846767286,1.20152276742812,1.03075184470303,1.99632414120621,25533.914636791,25534.39643379,25534.39643379,25536.7963216568,2.4,25538.0266127398,25538.0266127398,25539.626549946,1.6,25540.8146456451,25541.2033978723,0.388752227168879,66,Shorter,Index,66,S,Index
215,Temporal,2314,4,4,6,1200,2.5,5,1,l,l,-1600,-800,-1600,-400,=,L,S,0.497856422894265,0.326997234086711,1.60496119272285,1.26099722975651,1.64345501533234,25543.3646933484,25543.8768330988,25543.8768330988,25547.0766844584,3.2,25548.7166331621,25548.7166331621,25551.1165778109,2.4,25552.5309689573,25552.9235627903,0.392593833028513,77,Shorter,Ring,77,S,Ring
215,Temporal,2314,4,4,7,1600,15,20,2,m,m,-800,400,-800,800,=,L,S,0.38366905211323,0.451232783613798,1.6616527541269,1.23862688895819,1.8911192828954,25554.7148068803,25555.1167270288,25555.1167270288,25555.9167145368,0.8,25557.6069894001,25557.6069894001,25558.4067828227,0.8,25559.7814362056,25561.0994015115,1.3179653058869,66,Equals to,Index,66,=,Index
215,Temporal,2314,4,4,8,400,2.5,1.25,2,r,r,0,800,0,400,S,=,L,0.354308764899873,0.418690620246328,1.0001251497361,1.95779338963262,1.0605837804247,25563.1481762718,25563.5169264394,25563.5169264394,25566.7169330672,3.2,25567.7469403045,25567.7469403045,25570.9467913432,3.2,25573.0481876924,25573.4274865215,0.379298829135223,78,Equals to,Middle,78,=,Middle
215,Temporal,2314,4,4,9,800,7.5,3.33333333333333,1,m,m,-800,400,-800,0,S,=,L,0.432313123138382,0.35399614048487,1.61284844940595,1.95676775642464,1.86392264474104,25574.6316081235,25575.0770993005,25575.0770993005,25576.6769707422,1.6,25578.3272274609,25578.3272274609,25580.7270797187,2.4,25582.831590736,25583.1795908233,0.348000087258697,77,Longer,Ring,78,=,Middle
215,Temporal,2314,4,4,10,1200,5,5,1,l,l,-1600,-800,-1600,-400,=,L,S,0.366548693559219,0.212705241488037,1.51292191436989,1.94959875832753,1.2281809998494,25585.1983073836,25585.5771974659,25585.5771974659,25587.1770442059,1.6,25588.7272793025,25588.7272793025,25591.1272826581,2.4,25593.2316557305,25594.443302068,1.21164633743319,78,Longer,Middle,78,L,Middle
215,Temporal,2314,4,4,11,1600,5,5,2,m,m,-800,400,-800,800,L,S,=,0.480256713443287,0.494356343990419,1.46880881803934,1.45154203831911,1.47824159672186,25595.8317193777,25596.3276146691,25596.3276146691,25598.7274364507,2.4,25600.2276408466,25600.2276408466,25603.4275595746,3.2,25605.0317302208,25605.4755369105,0.443806689749181,66,Longer,Index,66,L,Index
215,Temporal,2314,4,4,12,400,3.33333333333333,1.25,2,r,r,0,800,0,400,L,S,=,0.394803452233421,0.27724041814512,1.32340713191252,1.33618991555763,1.57596927292848,25607.11510991,25607.5276640085,25607.5276640085,25609.9275262111,2.4,25611.2877245246,25611.2877245246,25614.4877443053,3.2,25615.9651365045,25616.4754769205,0.510340416003601,66,Longer,Index,66,L,Index
215,Temporal,2314,4,4,13,1200,10,7.5,1,r,r,0,800,0,1200,L,S,=,0.343584407268647,0.363605765251665,1.29519914487068,1.38700632939566,1.26177611746881,25618.1985735503,25618.5577308701,25618.5577308701,25619.35758717,0.8,25620.6777144065,25620.6777144065,25622.2776679736,1.6,25623.8152339963,25624.307639326,0.492405329681787,66,Longer,Index,66,L,Index
215,Temporal,2314,4,4,14,1600,5,5,2,r,r,0,1600,0,1600,=,L,S,0.479541256815853,0.443919419348576,1.91195526676066,1.96877617802846,1.55433366272281,25625.7485668164,25626.2478600443,25626.2478600443,25629.4477335392,3.2,25631.3880258862,25631.3880258862,25634.5878791705,3.2,25636.6986063713,25637.1074600617,0.408853690478281,66,Equals to,Index,66,=,Index
215,Temporal,2314,4,4,15,400,10,5,2,r,r,0,800,0,400,=,L,S,0.43620881099172,0.253578020808075,1.88803149402105,1.20037925443348,1.85248823407442,25638.8153154801,25639.2680401041,25639.2680401041,25640.0679602436,0.8,25641.9882502552,25641.9882502552,25642.7880866653,0.8,25644.1319873116,25644.4995608218,0.367573510211514,66,Equals to,Index,66,=,Index
215,Temporal,2314,4,4,16,1600,6.66666666666667,5,2,l,l,-1600,0,-1600,0,S,=,L,0.388584408235106,0.486215538428612,1.41774252162288,1.34852704911427,1.92330295554054,25646.5154084485,25646.9182422416,25646.9182422416,25649.3181105394,2.4,25650.7681616881,25650.7681616881,25653.9680451279,3.2,25655.4653969959,25656.1795340413,0.714137045397365,77,Longer,Ring,77,L,Ring
215,Temporal,2314,4,4,17,800,5,5,1,l,l,-1600,-1200,-1600,-800,S,=,L,0.232967971700021,0.327804465066562,1.41927973589858,1.39411833733625,1.01642901936635,25658.2488343654,25658.4984228917,25658.4984228917,25659.2983443144,0.8,25660.7484974782,25660.7484974782,25662.3483044387,1.6,25663.8987894851,25664.2915876691,0.392798184002459,77,Longer,Ring,77,L,Ring
215,Temporal,2314,4,4,18,800,5,5,1,l,l,-1600,-1200,-1600,-800,S,=,L,0.251355452033619,0.336430390112047,1.10765067449669,1.09794720590927,1.17416327635807,25665.4654964446,25665.7283087567,25665.7283087567,25666.5283636331,0.8,25667.6683970286,25667.6683970286,25669.2683214027,1.6,25670.5154886491,25671.1075312798,0.592042630756623,77,Longer,Ring,77,L,Ring
215,Temporal,2314,4,4,19,1200,3.33333333333333,7.5,1,m,m,-800,0,-800,400,S,=,L,0.441149271162259,0.214292148936424,1.74954296695446,1.56616744150228,1.7692966230416,25672.4322459423,25672.8885799115,25672.8885799115,25675.2883949562,2.4,25677.0587487753,25677.0587487753,25678.6586789239,1.6,25680.3822293569,25681.6033720798,1.22114272295585,66,Shorter,Index,66,S,Index
215,Temporal,2314,4,4,20,800,15,5,1,l,l,-1600,-400,-1600,-800,=,L,S,0.360144227262016,0.325900009350758,1.80322037578196,1.31130615517988,1.61791853238704,25683.5156496917,25683.8888981472,25683.8888981472,25684.6887473895,0.8,25686.5188528564,25686.5188528564,25688.1186261327,1.6,25689.5822860747,25690.0675176265,0.485231551789184,78,Longer,Middle,78,L,Middle
215,Temporal,2314,4,4,21,800,2.5,3.33333333333333,1,r,r,0,400,0,800,S,=,L,0.401393859642008,0.465689187982283,1.42865084230386,1.17578897704824,1.54441395697636,25691.8489964988,25692.268671122,25692.268671122,25693.8686291803,1.6,25695.3288317925,25695.3288317925,25697.7287697045,2.4,25699.0490737452,25700.5315281154,1.48245437020159,77,Longer,Ring,78,=,Middle
215,Temporal,2314,4,4,22,1600,10,20,2,l,l,-1600,0,-1600,0,S,=,L,0.333900696261859,0.496909640517564,1.34972111573169,1.2786084569118,1.87935381850445,25702.2157823406,25702.5690250309,25702.5690250309,25704.1689882221,1.6,25705.5492222344,25705.5492222344,25706.3490515869,0.8,25707.7824412788,25708.2275590869,0.445117808176292,66,Shorter,Index,66,S,Index
215,Temporal,2314,4,4,23,1200,3.33333333333333,7.5,1,l,l,-1600,-800,-1600,-400,S,=,L,0.317562921674096,0.352912204676898,1.43919533306797,1.72973147495391,1.15580761541435,25710.2824464116,25710.6190172354,25710.6190172354,25713.0190414431,2.4,25714.4891741654,25714.4891741654,25716.0889666898,1.6,25717.9658705963,25718.3875761665,0.421705570166523,66,Shorter,Index,66,S,Index
215,Temporal,2314,4,4,24,400,2.5,1.25,2,r,r,0,800,0,400,S,=,L,0.4268171515649,0.373249902228295,1.67725812960359,1.53165795563802,1.73682656999822,25719.6992280858,25720.139016042,25720.139016042,25723.3390800934,3.2,25725.0392385504,25725.0392385504,25728.239159524,3.2,25729.9159350773,25730.3716088806,0.455673803233367,78,Equals to,Middle,66,S,Index
215,Temporal,2314,4,4,25,1200,10,7.5,1,l,l,-1600,-800,-1600,-400,S,=,L,0.257235650170429,0.289853365644679,1.71887413930527,1.85087068474188,1.71447068702948,25732.1992989831,25732.4695449229,25732.4695449229,25733.2693585561,0.8,25735.0194652677,25735.0194652677,25736.6193399175,1.6,25738.6159362964,25738.9474773081,0.331541011666559,77,Longer,Ring,77,L,Ring
215,Temporal,2314,4,4,26,800,1.25,3.33333333333333,1,m,m,-800,-400,-800,0,L,S,=,0.244239563599384,0.371221145919673,1.38272152901403,1.77529851638162,1.18948146648849,25740.8159910894,25741.0795296976,25741.0795296976,25744.2793810571,3.2,25745.6994692842,25745.6994692842,25748.0994736021,2.4,25750.0160381832,25750.4596084417,0.443570258561522,78,Shorter,Middle,78,S,Middle
215,Temporal,2314,4,4,27,1200,2.5,5,1,l,l,-1600,-800,-1600,-400,=,L,S,0.469785820064931,0.45028165146626,1.50513622487038,1.98608060451891,1.8382164644474,25751.7994861391,25752.2795485608,25752.2795485608,25755.4795962512,3.2,25757.019986892,25757.019986892,25759.4198888741,2.4,25761.5494904672,25762.0675477819,0.518057314649923,77,Shorter,Ring,77,S,Ring
215,Temporal,2314,4,4,28,800,1.66666666666667,5,1,r,r,0,400,0,800,L,S,=,0.300208871182574,0.407904701172998,1.88863977504192,1.84404327351306,1.81711272597461,25764.0495174173,25764.3598466245,25764.3598466245,25766.7599256894,2.4,25768.6899353648,25768.6899353648,25770.2898436988,1.6,25772.2828281662,25772.6835799981,0.400751831941307,78,Shorter,Middle,78,S,Middle
215,Temporal,2314,4,4,29,800,15,5,1,m,m,-800,400,-800,0,L,S,=,0.243376267489531,0.204577742316049,1.16863992696977,1.39161888949677,1.63087107272697,25774.6495691948,25774.9101721424,25774.9101721424,25775.7100316503,0.8,25776.9198998263,25776.9198998263,25778.5199804311,1.6,25780.0495636128,NaN,NaN,66,Longer,Index,999,Missed,Missed
215,Temporal,2314,4,4,30,800,1.66666666666667,5,1,m,m,-800,-400,-800,0,=,L,S,0.480659738004782,0.263350309433144,1.6751419705552,1.60933211765069,1.84378483052883,25784.7662712459,25785.2602080402,25785.2602080402,25787.6601799572,2.4,25789.3703544992,25789.3703544992,25790.9701341915,1.6,25792.7162973271,25793.1875621153,0.471264788178814,77,Shorter,Ring,77,S,Ring
215,Temporal,2314,4,4,31,800,3.75,3.33333333333333,1,m,m,-800,400,-800,0,L,S,=,0.403752456502593,0.374250354630638,1.79622740327007,1.97526602354549,1.30004831439103,25795.1830246896,25795.6004216174,25795.6004216174,25798.8003429118,3.2,25800.6303745943,25800.6303745943,25803.0304273534,2.4,25805.1497666575,25805.7076087215,0.557842063939461,78,Shorter,Middle,77,=,Ring
215,Temporal,2314,4,4,32,400,1.25,1.25,2,r,r,0,400,0,400,=,L,S,0.391303106404744,0.307178500997158,1.27295147217688,1.75461407253908,1.45856601674704,25807.1664757894,25807.5706316081,25807.5706316081,25810.7705144063,3.2,25812.0706826157,25812.0706826157,25815.2705869075,3.2,25817.1664578245,25817.5716155533,0.405157728797349,66,Equals to,Index,66,=,Index
215,Temporal,2314,4,4,33,1200,5,5,1,m,m,-800,800,-800,400,L,S,=,0.431694971273084,0.28064549702336,1.90885953428685,1.73118035367281,1.05387892226733,25819.1832065844,25819.6306042886,25819.6306042886,25822.8306590367,3.2,25824.7708237045,25824.7708237045,25827.1706855863,2.4,25829.0497236931,25829.4676384406,0.417914747467876,78,Shorter,Middle,78,S,Middle
215,Temporal,2314,4,4,34,1200,20,7.5,1,l,l,-1600,0,-1600,-400,S,=,L,0.463975525094974,0.365747289686904,1.86790680045943,1.83514058229655,1.09852199281088,25830.6666188671,25831.1409876921,25831.1409876921,25831.9409729545,0.8,25833.8310145304,25833.8310145304,25835.4310133306,1.6,25837.4165888721,25837.8036517551,0.38706288299727,77,Longer,Ring,78,=,Middle
215,Temporal,2314,4,4,35,800,5,5,1,l,l,-1600,-400,-1600,-800,L,S,=,0.329207223954132,0.416249710758885,1.36984680785971,1.44733514097912,1.96507496455853,25839.0499617283,25839.3910555418,25839.3910555418,25841.7909402006,2.4,25843.181087962,25843.181087962,25844.7810235642,1.6,25846.3833726931,25846.7155931664,0.332220473348571,78,Shorter,Middle,78,S,Middle
215,Temporal,2314,4,4,36,800,1.25,3.33333333333333,1,m,m,-800,-400,-800,0,S,=,L,0.436452988582453,0.311124451935646,1.74798798296206,1.23096506147262,1.23830103692715,25848.8333564311,25849.2809665063,25849.2809665063,25852.4810077807,3.2,25854.2611970733,25854.2611970733,25856.6610974514,2.4,25858.0500589314,25858.411670975,0.361612043681816,66,Shorter,Index,66,S,Index
215,Temporal,2314,4,4,37,800,5,5,1,l,l,-1600,-400,-1600,-800,L,S,=,0.437482718424066,0.284321237785362,1.65115841005627,1.24854279658359,1.16006969116286,25859.8001425003,25860.2512746625,25860.2512746625,25862.6511410355,2.4,25864.3312111821,25864.3312111821,25865.9312433458,1.6,25867.3334520301,25867.7156768958,0.382224865632452,78,Shorter,Middle,78,S,Middle
215,Temporal,2314,4,4,38,1600,20,20,2,r,r,0,1600,0,1600,=,L,S,0.265699334817879,0.453908980984542,1.72707803432254,1.64932960619724,1.84671850683015,25869.016881572,25869.301651188,25869.301651188,25870.101200801,0.8,25871.8614487105,25871.8614487105,25872.6613925893,0.8,25874.4668341896,25875.0194553678,0.552621178201662,66,Equals to,Index,66,=,Index
215,Temporal,2314,4,4,39,1600,15,20,2,r,r,0,1200,0,1600,=,L,S,0.233098986480706,0.419503165884534,1.56939064800719,1.40272016350744,1.15568965668871,25877.0002569625,25877.2518264422,25877.2518264422,25878.0513321053,0.8,25879.6517964793,25879.6517964793,25880.4516300022,0.8,25882.0002755402,25883.7875956071,1.78732006685095,66,Equals to,Index,77,S,Ring
215,Temporal,2314,4,4,40,1200,10,7.5,1,r,r,0,800,0,1200,L,S,=,0.280212367278718,0.475899270401617,1.92067017619099,1.37729815086307,1.68027936092265,25885.0836376142,25885.381673041,25885.381673041,25886.1815001479,0.8,25888.1318191664,25888.1318191664,25889.7317133851,1.6,25891.26694076,25891.7395981504,0.472657390349923,66,Longer,Index,66,L,Index
215,Temporal,2314,4,4,41,1600,6.66666666666667,5,2,m,m,-800,800,-800,800,=,L,S,0.215418631336739,0.244606019373777,1.21059728143156,1.57851287728634,1.26101183896745,25893.5836956794,25893.8118741904,25893.8118741904,25896.2117700772,2.4,25897.4618739017,25897.4618739017,25900.6618712262,3.2,25902.4004101254,25902.8596214663,0.459211340908951,78,Longer,Middle,78,L,Middle
215,Temporal,2314,4,4,42,800,5,5,1,m,m,-800,400,-800,0,L,S,=,0.303313107252576,0.43360272909547,1.32678609325216,1.7606721245891,1.02836682584039,25904.2837273746,25904.6019990017,25904.6019990017,25907.0018663371,2.4,25908.3621034677,25908.3621034677,25909.9620166137,1.6,25911.8837756233,25912.3396845745,0.455908951214951,78,Shorter,Middle,78,S,Middle
215,Temporal,2314,4,4,43,1200,20,7.5,1,l,l,-1600,0,-1600,-400,S,=,L,0.334262148218432,0.239116465027273,1.51989840546725,1.37557454886668,1.88531325528598,25913.5171635571,25913.8624172122,25913.8624172122,25914.6618506948,0.8,25916.2224210746,25916.2224210746,25917.8219457293,1.6,25919.3338584838,25919.7316637506,0.397805266809883,77,Longer,Ring,77,L,Ring
215,Temporal,2314,4,4,44,800,7.5,3.33333333333333,1,l,l,-1600,-400,-1600,-800,=,L,S,0.298945025476162,0.459168662631736,1.63782857878105,1.07437138249632,1.68583754586592,25921.767226274,25922.0820951525,25922.0820951525,25923.6820249802,1.6,25925.3522407261,25925.3522407261,25927.7521205728,2.4,25928.967204716,25929.4436892762,0.476484560113022,78,Longer,Middle,66,=,Index
215,Temporal,2314,4,4,45,400,2.5,5,2,r,r,0,400,0,400,=,L,S,0.391003041225191,0.494844572375135,1.0497093328563,1.58345614314067,1.35187070913262,25931.2838996454,25931.6925742833,25931.6925742833,25933.2923947175,1.6,25934.3623350868,25934.3623350868,25935.1622901938,0.8,25936.9006397206,25937.3556656549,0.455025934264995,77,Shorter,Ring,77,S,Ring
215,Temporal,2314,4,4,46,800,5,5,1,m,m,-800,-400,-800,0,S,=,L,0.304135202510568,0.414157438159749,1.61946499882777,1.16170997700171,1.58516923214699,25938.8672825427,25939.1827205242,25939.1827205242,25939.9825636712,0.8,25941.6326333623,25941.6326333623,25943.2324852351,1.6,25944.5506209767,25945.0516629422,0.501041965413606,77,Longer,Ring,77,L,Ring
215,Temporal,2314,4,4,47,1200,3.33333333333333,7.5,1,m,m,-800,0,-800,400,S,=,L,0.404786669097965,0.226314776149685,1.71030726561633,1.47130563778587,1.28030026918802,25946.7840472144,25947.2027578271,25947.2027578271,25949.6025946864,2.4,25951.3429862254,25951.3429862254,25952.9424634013,1.6,25954.5506976485,25955.6436641894,1.09296654097489,66,Shorter,Index,66,S,Index
215,Temporal,2314,4,4,48,800,3.75,3.33333333333333,1,l,l,-1600,-400,-1600,-800,=,L,S,0.46781091858977,0.238601190269079,1.98797815864396,1.81780477346279,1.22273861723909,25957.0840729427,25957.5627276845,25957.5627276845,25960.7626117659,3.2,25962.7827607528,25962.7827607528,25965.1828144743,2.4,25967.1507699573,25967.6196883984,0.468918441183632,77,Shorter,Ring,77,S,Ring
215,Temporal,2314,4,4,49,800,7.5,3.33333333333333,1,l,l,-1600,-400,-1600,-800,=,L,S,0.306675916924579,0.29317782969051,1.49903093279039,1.76980702927471,1.63075067066455,25968.9508213498,25969.2731475953,25969.2731475953,25970.8729754079,1.6,25972.4029961189,25972.4029961189,25974.8028470935,2.4,25976.717526641,25977.1475895247,0.430062883639039,78,Longer,Middle,78,L,Middle
215,Temporal,2314,4,4,50,1200,2.5,5,1,m,m,-800,0,-800,400,L,S,=,0.388791174729916,0.36641230649855,1.45721568866693,1.78371090212358,1.9831185142047,25978.9342185548,25979.343223619,25979.343223619,25982.5430441815,3.2,25984.0232087081,25984.0232087081,25986.4231206351,2.4,25988.3509107253,25988.75564692,0.404736194759607,78,Shorter,Middle,78,S,Middle
215,Temporal,2314,4,4,51,400,5,5,2,l,l,-1600,-800,-1600,-1200,=,L,S,0.246924992707064,0.377364632185156,1.67998019454908,1.06514376180325,1.26407917803201,25990.900975431,25991.1631833519,25991.1631833519,25992.7632046083,1.6,25994.4832582528,25994.4832582528,25995.2832351743,0.8,25996.5010210114,25996.9237183793,0.422697367892397,77,Shorter,Ring,77,S,Ring
215,Temporal,2314,4,4,52,1200,3.33333333333333,7.5,1,r,r,0,800,0,1200,L,S,=,0.339618411311246,0.237876604741173,1.15581550264766,1.40272521590633,1.29798362602479,25998.3510050411,25998.7032897171,25998.7032897171,26001.1033004511,2.4,26002.2931768781,26002.2931768781,26003.8932029465,1.6,26005.4343513669,26005.7716414741,0.337290107167064,78,Shorter,Middle,78,S,Middle
215,Temporal,2314,4,4,53,1600,7.5,20,2,m,m,-800,400,-800,800,S,=,L,0.299115119714302,0.485407967716856,1.55407554548445,1.95278543658017,1.36986138179344,26007.2177619845,26007.5334342769,26007.5334342769,26009.1333685959,1.6,26010.7235849449,26010.7235849449,26011.5235888138,0.8,26013.6178075327,26014.0356728793,0.41786534664061,66,Shorter,Index,66,S,Index
215,Temporal,2314,4,4,54,800,1.25,3.33333333333333,1,m,m,-800,-400,-800,0,=,L,S,0.301301492320789,0.219045168630793,1.99907808602803,1.48620302242588,1.29438079067391,26015.5511599244,26015.8638614635,26015.8638614635,26019.0634504069,3.2,26021.1036453583,26021.1036453583,26023.5036657164,2.4,26025.1344841148,26025.6357358849,0.501251770027011,77,Shorter,Ring,77,S,Ring
215,Temporal,2314,4,4,55,1200,6.66666666666667,7.5,1,r,r,0,1600,0,1200,=,L,S,0.254832003106699,0.220244246283261,1.61171569052237,1.48181184602832,1.69037817957979,26027.0845284818,26027.3538582106,26027.3538582106,26029.7537120724,2.4,26031.3939555933,26031.3939555933,26032.9937551753,1.6,26034.6179207786,26035.3079193863,0.689998607718735,77,Shorter,Ring,77,S,Ring
215,Temporal,2314,4,4,56,1600,5,5,2,l,l,-1600,0,-1600,0,S,=,L,0.289750238554768,0.261914367113522,1.03189209782202,1.44477101726157,1.54387637786464,26037.1512781079,26037.45408675,26037.45408675,26040.654063864,3.2,26041.7142200882,26041.7142200882,26044.9138549063,3.2,26046.5180387054,26046.9476316139,0.429592908476479,78,Equals to,Middle,78,=,Middle
215,Temporal,2314,4,4,57,1600,20,20,2,m,m,-800,800,-800,800,S,=,L,0.452843327246845,0.309744750466633,1.71981125379639,1.76742092549122,1.93213668007675,26048.6347218292,26049.1042285767,26049.1042285767,26049.9041705307,0.8,26051.6543972224,26051.6543972224,26052.4539266248,0.8,26054.368078351,26054.7237145939,0.355636242889886,78,Equals to,Middle,78,=,Middle
215,Temporal,2314,4,4,58,1200,10,5,1,r,r,0,1600,0,1200,=,L,S,0.38925906409284,0.497879697527947,1.25476406487798,1.4534824853386,1.38451597720408,26056.8180509601,26057.22440684,26057.22440684,26058.8242616,1.6,26060.1044723863,26060.1044723863,26062.5043108496,2.4,26064.101408129,26064.8117119094,0.710303780397226,78,Longer,Middle,78,L,Middle
215,Temporal,2314,4,4,59,800,5,5,1,r,r,0,1200,0,800,S,=,L,0.309125410856486,0.42382445161406,1.16130106475389,1.54265046891064,1.00001796179793,26066.351499718,26066.6744685303,26066.6744685303,26069.0743185424,2.4,26070.2644798418,26070.2644798418,26071.8644552234,1.6,26073.5515252162,26074.5557403376,1.00421512140383,66,Shorter,Index,77,L,Ring
215,Temporal,2314,4,4,60,1600,5,5,2,l,l,-1600,-400,-1600,0,S,=,L,0.341785218670414,0.445650300016204,1.75979552205535,1.23319143129876,1.01164642403405,26075.7181862103,26076.0745078606,26076.0745078606,26078.4744169004,2.4,26080.2647104985,26080.2647104985,26083.4646244145,3.2,26084.8515417431,26085.2195339001,0.367992157029221,77,Longer,Ring,77,L,Ring
215,Temporal,2314,4,4,61,1600,3.75,5,2,m,m,-800,400,-800,800,S,=,L,0.405349983281617,0.398709934046114,1.92634200344861,1.72079931317548,1.05275848911865,26086.3849574089,26086.8048431694,26086.8048431694,26090.0047105691,3.2,26091.9546956325,26091.9546956325,26095.1546977691,3.2,26097.0183556057,26097.4035578884,0.385202282737737,78,Equals to,Middle,78,=,Middle
215,Temporal,2314,4,4,62,1200,6.66666666666667,7.5,1,r,r,0,1600,0,1200,L,S,=,0.231815466781541,0.353827948964325,1.44695923909481,1.20790312962348,1.3156403982267,26098.6017007006,26098.8450598906,26098.8450598906,26101.2449118275,2.4,26102.7349747047,26102.7349747047,26104.3348596202,1.6,26105.6850149462,26106.0997277673,0.414712821115245,78,Shorter,Middle,78,S,Middle
215,Temporal,2314,4,4,63,1200,10,7.5,1,r,r,0,800,0,1200,S,=,L,0.316768868033789,0.414032302215024,1.71301979102102,1.02716742575064,1.62165595270345,26107.5683831507,26107.9051278493,26107.9051278493,26108.7050088509,0.8,26110.4452136831,26110.4452136831,26112.0450123028,1.6,26113.2351167371,26113.9797188875,0.744602150429273,77,Longer,Ring,77,L,Ring
215,Temporal,2314,4,4,64,400,5,5,2,m,m,-800,0,-800,-400,S,=,L,0.349400462198896,0.234510616024424,1.34626770618506,1.47100483262589,1.99543357938972,26115.7518062766,26116.1151496446,26116.1151496446,26117.7150762643,1.6,26119.0951023968,26119.0951023968,26119.8948993483,0.8,26121.5018109282,26121.8757238099,0.373912881685101,66,Shorter,Index,66,S,Index
215,Temporal,2314,4,4,65,800,7.5,3.33333333333333,1,l,l,-1600,-400,-1600,-800,L,S,=,0.339868448478807,0.283052567351949,1.49746138266518,1.2620396288936,1.67361966021483,26124.0351958465,26124.395376426,26124.395376426,26125.9953068954,1.6,26127.5353343881,26127.5353343881,26129.9351619441,2.4,26131.3518795478,26132.4357677084,1.08388816066872,66,Longer,Index,66,L,Index
215,Temporal,2314,4,4,66,800,5,5,1,l,l,-1600,-1200,-1600,-800,L,S,=,0.293839908742397,0.282500076777358,1.47809651862262,1.89672683470668,1.36189680066857,26134.2519041212,26134.5653977209,26134.5653977209,26135.3652126373,0.8,26136.8753192334,26136.8753192334,26138.4752031865,1.6,26140.5185898435,26140.9717816005,0.453191756925662,66,Longer,Index,66,L,Index
215,Temporal,2314,4,4,67,800,1.25,3.33333333333333,1,m,m,-800,-400,-800,0,L,S,=,0.39428291215934,0.290728394770066,1.12231966786809,1.88468309403618,1.49546483028509,26142.4852774265,26142.8955801354,26142.8955801354,26146.0954289285,3.2,26147.2555743738,26147.2555743738,26149.6554231028,2.4,26151.6853700949,26152.2997193623,0.614349267387297,78,Shorter,Middle,78,S,Middle
215,Temporal,2314,4,4,68,1200,10,5,1,r,r,0,1600,0,1200,L,S,=,0.282274085349465,0.45739776246538,1.96609952340312,1.39810884999557,1.70061169465816,26153.9520201874,26154.2456096171,26154.2456096171,26155.8455169887,1.6,26157.8458628584,26157.8458628584,26160.2455284093,2.4,26161.8016281351,26162.2118073801,0.41017924499829,66,Longer,Index,77,=,Ring
215,Temporal,2314,4,4,69,1200,20,7.5,1,l,l,-1600,0,-1600,-400,L,S,=,0.467451198094718,0.49075357426874,1.21214331997903,1.86860834612299,1.89689011580897,26164.0687549604,26164.5559901976,26164.5559901976,26165.3558108884,0.8,26166.5960028885,26166.5960028885,26168.1958460997,1.6,26170.2188325248,26170.699822853,0.480990328273037,66,Longer,Index,66,L,Index
215,Temporal,2314,4,4,70,1200,10,5,1,r,r,0,1600,0,1200,=,L,S,0.237619274965237,0.402753718570576,1.10102248451089,1.56968808212358,1.6307255423073,26172.7522031088,26173.0059020732,26173.0059020732,26174.605865906,1.6,26175.7359428857,26175.7359428857,26178.1359571485,2.4,26179.8521640993,26180.6999101112,0.847746011946583,78,Longer,Middle,78,L,Middle
215,Temporal,2314,4,4,71,800,1.66666666666667,5,1,m,m,-800,-400,-800,0,L,S,=,0.408594305640679,0.482023592885858,1.42857548860029,1.75205555309571,1.16245134654231,26182.4855655068,26182.9061832884,26182.9061832884,26185.3060868745,2.4,26186.7661893965,26186.7661893965,26188.366124357,1.6,26190.2689730886,26190.6598220318,0.390848943225137,78,Shorter,Middle,78,S,Middle
215,Temporal,2314,4,4,72,1200,5,5,1,m,m,-800,0,-800,400,=,L,S,0.318639593873133,0.309835361726477,1.95649846599357,1.61500787861419,1.58457937177054,26191.985621968,26192.3161642777,26192.3161642777,26193.9160283409,1.6,26195.9062529025,26195.9062529025,26198.3063829749,2.4,26200.0689731059,26200.467735002,0.398761896147334,78,Longer,Middle,66,=,Index
215,Temporal,2314,4,4,73,1200,5,5,1,m,m,-800,800,-800,400,S,=,L,0.223331039159743,0.380437775649728,1.28953661295196,1.10010622132592,1.95676552907438,26202.0190264553,26202.2565884294,26202.2565884294,26205.4564715484,3.2,26206.7764698225,26206.7764698225,26209.176374371,2.4,26210.4190417255,26210.7879273165,0.368885591044091,66,Shorter,Index,66,S,Index
215,Temporal,2314,4,4,74,800,2.5,3.33333333333333,1,r,r,0,400,0,800,=,L,S,0.351411024695967,0.349899432971806,1.21021078712556,1.85467061171577,1.54245237384244,26212.8857918648,26213.2567478681,26213.2567478681,26214.8565237108,1.6,26216.0966711194,26216.0966711194,26218.4965390965,2.4,26220.5024361716,26220.9317932905,0.429357118890039,78,Longer,Middle,66,=,Index
215,Temporal,2314,4,4,75,800,1.66666666666667,5,1,l,l,-1600,-1200,-1600,-800,=,L,S,0.266070177100914,0.250362730826634,1.88580747945673,1.1944092544011,1.84774896282486,26222.6191590749,26222.8968476247,26222.8968476247,26225.2966687647,2.4,26227.2169475482,26227.2169475482,26228.8168549198,1.6,26230.1691596202,26230.7878134317,0.618653811481636,77,Shorter,Ring,77,S,Ring
215,Temporal,2314,4,4,76,1200,5,5,1,m,m,-800,800,-800,400,L,S,=,0.365814568363783,0.214082997554599,1.07218061763786,1.19967865030915,1.78161102510139,26232.7858873356,26233.1667474639,26233.1667474639,26236.3668050992,3.2,26237.4771806559,26237.4771806559,26239.8767332844,2.4,26241.2192365165,26243.1077491045,1.88851258795694,78,Shorter,Middle,78,S,Middle
215,Temporal,2314,4,4,77,800,3.75,3.33333333333333,1,m,m,-800,400,-800,0,S,=,L,0.379381812147356,0.228189754876085,1.28810087510368,1.16483990455704,1.86028400134923,26245.0360129296,26245.4267852031,26245.4267852031,26248.62684348,3.2,26249.9371134286,26249.9371134286,26252.33697916,2.4,26253.6527159405,26254.0596310262,0.40691508573218,66,Shorter,Index,66,S,Index
215,Temporal,2314,4,4,78,1200,5,5,1,m,m,-800,0,-800,400,L,S,=,0.400805791118093,0.275835205052065,1.40474631968407,1.60866228614994,1.3539938199023,26256.0693673717,26256.4871194276,26256.4871194276,26258.0871692353,1.6,26259.5274355974,26259.5274355974,26261.9273488075,2.4,26263.6693729537,26264.3318489817,0.662476028061064,66,Longer,Index,77,=,Ring
215,Temporal,2314,4,4,79,400,2.5,5,2,r,r,0,400,0,400,S,=,L,0.232906445542645,0.451530732308504,1.9685180787124,1.89340439156511,1.15599771544681,26265.8361368234,26266.0874948944,26266.0874948944,26267.6872842108,1.6,26269.6874414488,26269.6874414488,26270.4873535682,0.8,26272.5361768072,26272.8758197297,0.339642922470375,66,Shorter,Index,66,S,Index
215,Temporal,2314,4,4,80,1200,10,5,1,m,m,-800,800,-800,400,=,L,S,0.235074610972868,0.323760671653239,1.09473600196979,1.42126840047211,1.92147549289663,26274.1861740044,26274.4375773085,26274.4375773085,26276.0374349558,1.6,26277.1675411284,26277.1675411284,26279.5674270704,2.4,26281.1361875743,26282.0278331162,0.8916455418439,78,Longer,Middle,78,L,Middle
215,Temporal,2314,4,4,81,400,5,5,2,r,r,0,400,0,400,=,L,S,0.486019782264013,0.28481720269365,1.70362139898316,1.55382635360132,1.76139581321488,26284.1029133327,26284.6078677564,26284.6078677564,26285.4077051289,0.8,26287.1376157406,26287.1376157406,26287.937615439,0.8,26289.6362801347,26289.9958382336,0.359558098851267,66,Equals to,Index,66,=,Index
215,Temporal,2314,4,4,82,800,15,5,1,m,m,-800,400,-800,0,L,S,=,0.403016884937036,0.267001196407133,1.38231250453938,1.20179451433694,1.496191366915,26291.9029717829,26292.3178038975,26292.3178038975,26293.1177930095,0.8,26294.5378812365,26294.5378812365,26296.1377257308,1.6,26297.4862667804,26297.8838478038,0.397581023400562,66,Longer,Index,77,=,Ring
215,Temporal,2314,4,4,83,800,3.75,3.33333333333333,1,r,r,0,1200,0,800,L,S,=,0.359272017960676,0.472861546471856,1.23067221953238,1.01704453463208,1.04921039038304,26299.5363112756,26299.9079056752,26299.9079056752,26303.107733937,3.2,26304.368240413,26304.368240413,26306.7676785152,2.4,26307.9363855734,26308.691797987,0.755412413633167,78,Shorter,Middle,78,S,Middle
215,Temporal,2314,4,4,84,400,10,5,2,l,l,-1600,-800,-1600,-1200,L,S,=,0.386451737517164,0.494762132759705,1.78547262390546,1.1299569380608,1.440979065218,26309.9030423594,26310.3080146196,26310.3080146196,26311.1080688544,0.8,26312.9180504019,26312.9180504019,26313.7179336491,0.8,26315.0030511493,26316.6598278062,1.65677665689509,77,Equals to,Ring,77,=,Ring
215,Temporal,2314,4,4,85,1600,3.75,5,2,l,l,-1600,-400,-1600,0,S,=,L,0.36365260485526,0.499957614161384,1.43133214685719,1.58620945228269,1.55419663228175,26318.2697695935,26318.6480985928,26318.6480985928,26321.8481373008,3.2,26323.3180586144,26323.3180586144,26326.5180838487,3.2,26328.2532020841,26328.6839399381,0.430737854083418,78,Equals to,Middle,78,=,Middle
215,Temporal,2314,4,4,86,1200,20,7.5,1,m,m,-800,800,-800,400,L,S,=,0.251552365449332,0.236260380898989,1.96006004854062,1.098597787861,1.1871128528396,26330.3865990031,26330.6584242519,26330.6584242519,26331.4583026871,0.8,26333.4484512185,26333.4484512185,26335.0483788006,1.6,26336.3031898,26336.875864642,0.572674841991102,66,Longer,Index,77,=,Ring
215,Temporal,2314,4,4,87,800,2.5,3.33333333333333,1,l,l,-1600,-1200,-1600,-800,L,S,=,0.379376491015643,0.467134120237555,1.11889143968689,1.32191720340145,1.31039089743473,26338.2198909529,26338.6183897464,26338.6183897464,26340.2182281455,1.6,26341.368426799,26341.368426799,26343.7683505957,2.4,26345.2366530847,26346.0118671135,0.775214028752089,66,Longer,Index,77,=,Ring
215,Temporal,2314,4,4,88,400,1.66666666666667,1.25,2,l,l,-1600,-1200,-1600,-1200,L,S,=,0.209456507184228,0.333028883727889,1.57763396188471,1.33588139972218,1.86856101267158,26347.4866369861,26347.7088232335,26347.7088232335,26350.1083639924,2.4,26351.7086108625,26351.7086108625,26354.908486603,3.2,26356.3866567475,26356.7959021374,0.409245389910211,66,Longer,Index,77,=,Ring
215,Temporal,2314,4,4,89,400,3.33333333333333,1.25,2,l,l,-1600,-800,-1600,-1200,L,S,=,0.380710281422265,0.452849772109122,1.39297576035801,1.4243590149342,1.17253766887992,26358.8200688056,26359.2187292834,26359.2187292834,26361.6186880475,2.4,26363.0488411214,26363.0488411214,26366.2486527015,3.2,26367.8201302978,26368.9079159858,1.08778568793423,66,Longer,Index,77,=,Ring
215,Temporal,2314,4,4,90,800,2.5,3.33333333333333,1,m,m,-800,-400,-800,0,S,=,L,0.243890557158213,0.365881281717522,1.18474282213116,1.59980183926051,1.71796417745092,26370.2368264197,26370.4988989621,26370.4988989621,26372.0987800279,1.6,26373.3188128203,26373.3188128203,26375.7188373488,2.4,26377.4701214493,26377.8518163497,0.381694900464936,77,Longer,Ring,78,=,Middle
215,Temporal,2314,4,4,91,1200,5,5,1,l,l,-1600,-800,-1600,-400,=,L,S,0.316572171337974,0.386811400093001,1.85832413661472,1.66554684145348,1.26737297137653,26379.7202027726,26380.0490294323,26380.0490294323,26381.6489445031,1.6,26383.5392796131,26383.5392796131,26385.9391135851,2.4,26387.7535860347,26388.691857977,0.938271942362917,78,Longer,Middle,78,L,Middle
215,Temporal,2314,4,4,92,1600,10,20,2,r,r,0,1600,0,1600,S,=,L,0.456753039642917,0.272169684083575,1.83507681604171,1.62391095717514,1.68414608042278,26390.1202623135,26390.5892907449,26390.5892907449,26392.1891615451,1.6,26394.049214856,26394.049214856,26394.8490483789,0.8,26396.6202584639,26397.0438302366,0.423571772746072,66,Shorter,Index,66,S,Index
215,Temporal,2314,4,4,93,800,15,5,1,r,r,0,1200,0,800,=,L,S,0.203517834551008,0.419803908448879,1.88936245618636,1.98370135054568,1.77774668524067,26398.8869724168,26399.1093222734,26399.1093222734,26399.9093511648,0.8,26401.8294964946,26401.8294964946,26403.4293159664,1.6,26405.5536682765,26405.9318144634,0.378146186980302,78,Longer,Middle,78,L,Middle
215,Temporal,2314,4,4,94,400,5,5,2,l,l,-1600,-1200,-1600,-1200,L,S,=,0.27141505802279,0.399724169899715,1.25952834738841,1.73248347575061,1.21415356032533,26407.853724481,26408.1396493055,26408.1396493055,26408.9394732044,0.8,26410.2297786722,26410.2297786722,26411.0292763152,0.8,26412.9037147607,26413.3077637972,0.40404903653689,77,Equals to,Ring,77,=,Ring
215,Temporal,2314,4,4,95,400,1.66666666666667,1.25,2,r,r,0,400,0,400,=,L,S,0.249867766158642,0.22562337373127,1.59576519218766,1.93022022161196,1.12294768965124,26414.6704639523,26414.9397680665,26414.9397680665,26417.3393489256,2.4,26418.9696645821,26418.9696645821,26422.1696400921,3.2,26424.2538331749,26424.8997833302,0.645950155336323,78,Longer,Middle,66,=,Index
215,Temporal,2314,4,4,96,1200,2.5,5,1,l,l,-1600,-800,-1600,-400,L,S,=,0.473656396771951,0.368063519175961,1.30206253161161,1.00537269720402,1.34332733761063,26426.1705409943,26426.6597825282,26426.6597825282,26429.8597217875,3.2,26431.1900646481,26431.1900646481,26433.5896050861,2.4,26434.7371809061,26435.2118875807,0.474706674547633,78,Shorter,Middle,78,S,Middle
