Subject,Task,SequenceOrder,ListNo,RunNo,TrialNo,Aud_Probe_Dist,Aud_Standard_Vel,Aud_Probe_Vel,Main_Control,Aud_Std_StartCode,Aud_Probe_StartCode,Aud_Std_StartPt,Aud_Std_EndPt,Aud_Probe_StartPt,Aud_Probe_EndPt,RespIndex,RespMiddle,RespRing,ISI_Cross_Std,ISI_Cross_Probe,ISI_Std_Probe,ISI_Probe_Response,ITI,TrialOnset,StdOnset,StdOnsetByStop,StdOffset,StdDur,ProbeOnset,ProbeOnsetByStop,ProbeOffset,ProbeDur,RespWinStart,RespTime,RT,CorrectKC,CorrectResponse,CorrectFinger,SubjRespKC,SubjResponse,SubjRespFinger
229,Spatial,4132,3,3,1,800,1.66666666666667,5,1,m,m,-800,-400,-800,0,=,L,S,0.210176690949431,0.249725310631464,1.64137073514482,1.13097700302149,1.62644158215439,1212685.29043594,1212685.51273067,1212685.51273067,1212687.91081691,2.4,1212689.58085814,1212689.58085814,1212691.1808749,1.6,1212692.45712475,1212693.12910234,0.671977592632174,78,Longer,Middle,66,=,Index
229,Spatial,4132,3,3,2,1200,3.33333333333333,7.5,1,l,l,-1600,-800,-1600,-400,=,L,S,0.388125987442211,0.243815594025849,1.78912868675886,1.50471185725404,1.73484776059038,1212694.92384019,1212695.33093433,1212695.33093433,1212697.73095629,2.4,1212699.54098981,1212699.54098981,1212701.14101748,1.6,1212702.79054987,NaN,NaN,78,Longer,Middle,999,Missed,Missed
229,Spatial,4132,3,3,3,800,15,5,1,m,m,-800,400,-800,0,L,S,=,0.424530381045473,0.482393592149793,1.14966354445316,1.02584192404446,1.28126643915937,1212707.60723037,1212708.05111914,1212708.05111914,1212708.85112461,0.8,1212710.04115855,1212710.04115855,1212711.64116569,1.6,1212712.80724763,1212714.87311441,2.06586677860469,78,Shorter,Middle,66,L,Index
229,Spatial,4132,3,3,4,1200,3.33333333333333,7.5,1,l,l,-1600,-800,-1600,-400,=,L,S,0.325284594639903,0.470429011289477,1.87899474739913,1.68919874796281,1.64397905881901,1212716.34063675,1212716.68123906,1212716.68123906,1212719.08128316,2.4,1212720.98130393,1212720.98130393,1212722.58133545,1.6,1212724.40730742,1212724.84915722,0.441849796567112,78,Longer,Middle,66,=,Index
229,Spatial,4132,3,3,5,1600,5,5,2,m,m,-800,800,-800,800,L,S,=,0.380715488336052,0.409951111250758,1.95363441734484,1.0243145277497,1.29606969380254,1212726.67403942,1212727.07138806,1212727.07138806,1212730.27143832,3.2,1212732.26147008,1212732.26147008,1212735.46150461,3.2,1212736.62405997,1212738.04113389,1.41707392502576,77,Equals to,Ring,77,=,Ring
229,Spatial,4132,3,3,6,800,5,5,1,r,r,0,400,0,800,S,=,L,0.309700621782764,0.467422555421146,1.12453791483876,1.32874153773919,1.12999036990191,1212739.50741534,1212739.83158043,1212739.83158043,1212740.63158943,0.8,1212741.78161966,1212741.78161966,1212743.38162648,1.6,1212744.85743263,1212747.16918015,2.31174751836807,77,Longer,Ring,78,=,Middle
229,Spatial,4132,3,3,7,1200,3.33333333333333,7.5,1,m,m,-800,0,-800,400,S,=,L,0.48205285039384,0.323609484880635,1.00018775303363,1.41887892907379,1.12332515524739,1212748.47415534,1212748.97171707,1212748.97171707,1212751.37174802,2.4,1212752.40175911,1212752.40175911,1212754.00179095,1.6,1212755.57417106,1212756.0331703,0.45899923844263,77,Longer,Ring,77,L,Ring
229,Spatial,4132,3,3,8,1200,2.5,5,1,r,r,0,800,0,1200,=,L,S,0.37380952350084,0.40959609832749,1.87797590600208,1.7776992750376,1.17401677638665,1212757.34086412,1212757.73184335,1212757.73184335,1212760.93189329,3.2,1212762.83192561,1212762.83192561,1212765.23194372,2.4,1212767.15755685,1212770.01717318,2.85961633361876,78,Longer,Middle,66,=,Index
229,Spatial,4132,3,3,9,800,2.5,3.33333333333333,1,l,l,-1600,-1200,-1600,-800,S,=,L,0.356294278742879,0.496437624109186,1.22582672246644,1.18743277223557,1.52806262911346,1212771.37414193,1212771.74203845,1212771.74203845,1212773.34206901,1.6,1212774.60209364,1212774.60209364,1212777.00211945,2.4,1212778.34055138,1212779.88920488,1.54865349712782,77,Longer,Ring,78,=,Middle
229,Spatial,4132,3,3,10,800,3.75,3.33333333333333,1,r,r,0,1200,0,800,S,=,L,0.487720657790289,0.421402910178759,1.41447800470835,1.60857424098962,1.75429190521791,1212781.60768956,1212782.11220083,1212782.11220083,1212785.31224114,3.2,1212786.75226049,1212786.75226049,1212789.15230523,2.4,1212790.90770586,1212792.35313581,1.44542994862422,66,Shorter,Index,78,=,Middle
229,Spatial,4132,3,3,11,800,15,5,1,l,l,-1600,-400,-1600,-800,L,S,=,0.452264047159449,0.468335824646688,1.57683953376966,1.8379544853388,1.6387748409445,1212794.27442841,1212794.74237914,1212794.74237914,1212795.54238942,0.8,1212797.1524275,1212797.1524275,1212798.75243239,1.6,1212800.74109116,1212801.49715384,0.75606267969124,78,Shorter,Middle,77,=,Ring
229,Spatial,4132,3,3,12,400,1.25,1.25,2,r,r,0,400,0,400,=,L,S,0.290481592412015,0.490989469097366,1.43057403121882,1.5783624082578,1.30021129335759,1212803.32448093,1212803.63250953,1212803.63250953,1212806.83254664,3.2,1212808.28259105,1212808.28259105,1212811.48261692,3.2,1212813.20785638,1212813.76926337,0.561406987020746,66,Equals to,Index,66,=,Index
229,Spatial,4132,3,3,13,1600,7.5,20,2,l,l,-1600,-400,-1600,0,=,L,S,0.497954291541946,0.449526720223712,1.33528400817701,1.50690217384676,1.73571164372658,1212815.24120693,1212815.75268908,1212815.75268908,1212817.35269526,1.6,1212818.72273257,1212818.72273257,1212819.52274222,0.8,1212821.17455359,1212822.77725519,1.60270160320215,78,Longer,Middle,78,L,Middle
229,Spatial,4132,3,3,14,800,5,5,1,l,l,-1600,-400,-1600,-800,S,=,L,0.435391122983402,0.43305251674709,1.8816107107965,1.1713560759131,1.89469234759759,1212824.69127733,1212825.14282108,1212825.14282108,1212827.54285234,2.4,1212829.45288182,1212829.45288182,1212831.05290628,1.6,1212832.37421187,1212833.38521795,1.01100608054549,66,Shorter,Index,78,=,Middle
229,Spatial,4132,3,3,15,1200,2.5,5,1,r,r,0,800,0,1200,=,L,S,0.300626333032132,0.374499154497638,1.59789657933694,1.20800956886163,1.26483161076742,1212835.45799288,1212835.77297436,1212835.77297436,1212838.97301788,3.2,1212840.60304257,1212840.60304257,1212843.00307801,2.4,1212844.35802708,1212845.32122434,0.963197255507112,78,Longer,Middle,66,=,Index
229,Spatial,4132,3,3,16,1600,20,20,2,r,r,0,1600,0,1600,L,S,=,0.440072173986411,0.285116741212319,1.75223651423235,1.3703964605538,1.28245557794065,1212846.77472433,1212847.23314132,1212847.23314132,1212848.03314519,0.8,1212849.81317504,1212849.81317504,1212850.61318276,0.8,1212852.12475419,1212852.72917657,0.604422386037186,77,Equals to,Ring,77,=,Ring
229,Spatial,4132,3,3,17,1600,5,5,2,r,r,0,1200,0,1600,=,L,S,0.392170399643145,0.487909063773664,1.51883037095866,1.65131193359038,1.10801105869306,1212854.19144523,1212854.60325173,1212854.60325173,1212857.00330032,2.4,1212858.56331796,1212858.56331796,1212861.76334672,3.2,1212863.55813158,1212864.04923543,0.491103848675266,78,Longer,Middle,66,=,Index
229,Spatial,4132,3,3,18,800,1.66666666666667,5,1,m,m,-800,-400,-800,0,S,=,L,0.439590143431225,0.234815825745363,1.17882509639291,1.01060802968515,1.83188048681473,1212865.32479822,1212865.78341519,1212865.78341519,1212868.1834394,2.4,1212869.38346825,1212869.38346825,1212870.98348245,1.6,1212872.14152412,1212873.43322856,1.2917044411879,77,Longer,Ring,77,L,Ring
229,Spatial,4132,3,3,19,800,2.5,3.33333333333333,1,l,l,-1600,-1200,-1600,-800,=,L,S,0.257246790685012,0.425480516614071,1.72488011172412,1.21949380752446,1.00931423884871,1212875.44157532,1212875.71356116,1212875.71356116,1212877.31357536,1.6,1212879.06360412,1212879.06360412,1212881.46363506,2.4,1212882.82492153,1212883.30524775,0.480326212244108,78,Longer,Middle,66,=,Index
229,Spatial,4132,3,3,20,800,1.66666666666667,5,1,m,m,-800,-400,-800,0,S,=,L,0.239296954500989,0.46655291585401,1.79025882547817,1.667723525021,1.23599706551803,1212884.49162633,1212884.74368416,1212884.74368416,1212887.14371799,2.4,1212888.96374963,1212888.96374963,1212890.56377057,1.6,1212892.37498019,1212894.04119356,1.66621337318793,77,Longer,Ring,77,L,Ring
229,Spatial,4132,3,3,21,1200,6.66666666666667,7.5,1,r,r,0,1600,0,1200,S,=,L,0.337904144797683,0.43658075722179,1.8815021957059,1.65484852361201,1.67001956364069,1212895.45835813,1212895.81385996,1212895.81385996,1212898.21387294,2.4,1212900.12391556,1212900.12391556,1212901.72392816,1.6,1212903.52505428,1212904.16920678,0.644152496242896,66,Shorter,Index,78,=,Middle
229,Spatial,4132,3,3,22,800,3.75,3.33333333333333,1,r,r,0,1200,0,800,=,L,S,0.401472364713392,0.446576399704364,1.43526423121843,1.21858313749401,1.92330171863028,1212906.02505882,1212906.44400073,1212906.44400073,1212909.64406093,3.2,1212911.1040685,1212911.1040685,1212913.50410008,2.4,1212914.87509055,1212915.46521382,0.590123271336779,77,Shorter,Ring,66,=,Index
229,Spatial,4132,3,3,23,1600,20,20,2,l,l,-1600,0,-1600,0,S,=,L,0.38065246869303,0.446686626769146,1.12225880514442,1.04999724211277,1.03167959975394,1212917.55846138,1212917.95417657,1212917.95417657,1212918.75417467,0.8,1212919.91419564,1212919.91419564,1212920.7142024,0.8,1212921.90850017,1212922.28120619,0.372706023743376,78,Equals to,Middle,78,=,Middle
229,Spatial,4132,3,3,24,800,5,5,1,l,l,-1600,-400,-1600,-800,L,S,=,0.262567925793351,0.438346838066271,1.05858575044762,1.35187576129085,1.71040514726327,1212923.4918545,1212923.77425565,1212923.77425565,1212926.17428659,2.4,1212927.26430404,1212927.26430404,1212928.86432594,1.6,1212930.3585301,1212932.18521224,1.82668214198202,78,Shorter,Middle,77,=,Ring
229,Spatial,4132,3,3,25,800,3.75,3.33333333333333,1,l,l,-1600,-400,-1600,-800,S,=,L,0.347119277609706,0.394324496029397,1.83893769151451,1.34575056445622,1.19427410022701,1212960.37539268,1212960.7348589,1212960.7348589,1212963.93483408,3.2,1212965.81486824,1212965.81486824,1212968.21490496,2.4,1212969.70877965,1212970.55323166,0.844452015357092,66,Shorter,Index,78,=,Middle
229,Spatial,4132,3,3,26,1200,20,7.5,1,m,m,-800,800,-800,400,=,L,S,0.415260741891455,0.393849295414698,1.24824591157384,1.39122625747307,1.73674147255148,1212971.92546964,1212972.35496722,1212972.35496722,1212973.15503044,0.8,1212974.43497849,1212974.43497849,1212976.03500648,1.6,1212977.55882421,NaN,NaN,77,Shorter,Ring,999,Missed,Missed
229,Spatial,4132,3,3,27,1200,10,5,1,l,l,-1600,0,-1600,-400,L,S,=,0.232027455455655,0.355516242404518,1.77608699228472,1.7494232060332,1.97013762632841,1212982.3922013,1212982.63510258,1212982.63510258,1212984.23512832,1.6,1212986.05515772,1212986.05515772,1212988.45518257,2.4,1212990.35889127,1212991.22531604,0.866424763808027,78,Shorter,Middle,78,S,Middle
229,Spatial,4132,3,3,28,1200,5,5,1,m,m,-800,800,-800,400,S,=,L,0.390919651935773,0.244058591051725,1.03479157115875,1.5305752851856,1.59687010201068,1212993.3755148,1212993.78526044,1212993.78526044,1212996.98531391,3.2,1212998.0553364,1212998.0553364,1213000.45535708,2.4,1213002.1423088,1213002.71326767,0.570958871394396,66,Shorter,Index,78,=,Middle
229,Spatial,4132,3,3,29,1200,5,5,1,l,l,-1600,-800,-1600,-400,=,L,S,0.337059508199189,0.339513311258923,1.39021460241348,1.32085188750718,1.70291739287519,1213004.49232096,1213004.8454301,1213004.8454301,1213006.44544526,1.6,1213007.86547285,1213007.86547285,1213010.26550636,2.4,1213011.72567277,1213012.1692565,0.443583732238039,78,Longer,Middle,78,L,Middle
229,Spatial,4132,3,3,30,800,2.5,3.33333333333333,1,l,l,-1600,-1200,-1600,-800,=,L,S,0.411861345028146,0.208872546162555,1.14908250740402,1.36273133502728,1.66880179855179,1213014.05905445,1213014.48556963,1213014.48556963,1213016.08559025,1.6,1213017.27560911,1213017.27560911,1213019.6756439,2.4,1213021.19237351,1213022.70527681,1.51290330453776,78,Longer,Middle,66,=,Index
229,Spatial,4132,3,3,31,1600,3.75,5,2,r,r,0,1200,0,1600,L,S,=,0.39506624457191,0.225413886866944,1.97090117949582,1.74560188212027,1.06224283357427,1213024.57574845,1213024.98571624,1213024.98571624,1213028.18577644,3.2,1213030.19579738,1213030.19579738,1213033.39584251,3.2,1213035.2924855,1213035.7932706,0.500785097014159,66,Longer,Index,77,=,Ring
229,Spatial,4132,3,3,32,1200,10,7.5,1,m,m,-800,0,-800,400,L,S,=,0.465699907895225,0.407065605016544,1.50553369669925,1.87871956928833,1.17920764972802,1213037.025838,1213037.50590592,1213037.50590592,1213038.30590979,0.8,1213039.84593696,1213039.84593696,1213041.44595341,1.6,1213043.47588209,1213044.09724861,0.6213665145915,66,Longer,Index,66,L,Index
229,Spatial,4132,3,3,33,1200,6.66666666666667,7.5,1,r,r,0,1600,0,1200,S,=,L,0.423584504186225,0.397438992945716,1.34394869596114,1.85345701644034,1.65946537841021,1213045.45923355,1213045.8960315,1213045.8960315,1213048.2960525,2.4,1213049.6660818,1213049.6660818,1213051.26610113,1.6,1213053.25925237,1213054.16134328,0.90209090616554,66,Shorter,Index,78,=,Middle
229,Spatial,4132,3,3,34,800,15,5,1,m,m,-800,400,-800,0,L,S,=,0.425638801029299,0.466729667249405,1.9046680839757,1.25795141186772,1.59340615837706,1213055.99260455,1213056.43617701,1213056.43617701,1213057.2361889,0.8,1213059.17622524,1213059.17622524,1213060.77623784,1.6,1213062.17596961,1213062.64130661,0.465337005676702,78,Shorter,Middle,78,S,Middle
229,Spatial,4132,3,3,35,400,3.33333333333333,1.25,2,r,r,0,800,0,400,=,L,S,0.465656397289306,0.426946116464206,1.33637431423494,1.84142990266585,1.23070614744267,1213064.42602407,1213064.9063238,1213064.9063238,1213067.30633935,2.4,1213068.67635517,1213068.67635517,1213071.87640382,3.2,1213073.85937184,1213076.82531937,2.96594753861427,77,Shorter,Ring,66,=,Index
229,Spatial,4132,3,3,36,400,1.66666666666667,1.25,2,l,l,-1600,-1200,-1600,-1200,L,S,=,0.37223107816988,0.462223508494196,1.8510850400469,1.04815581713413,1.8423263354567,1213078.24275396,1213078.62650027,1213078.62650027,1213081.02653699,2.4,1213082.90656536,1213082.90656536,1213086.10660535,3.2,1213087.30907909,1213088.00933598,0.700256898300722,77,Equals to,Ring,77,=,Ring
229,Spatial,4132,3,3,37,1600,3.75,5,2,l,l,-1600,-400,-1600,0,S,=,L,0.336551945803858,0.411578472152123,1.3328584847736,1.23091165423044,1.08334730034214,1213090.04282163,1213090.39668658,1213090.39668658,1213093.59670733,3.2,1213094.95674363,1213094.95674363,1213098.15678876,3.2,1213099.54287163,1213100.13733797,0.594466337002814,77,Longer,Ring,78,=,Middle
229,Spatial,4132,3,3,38,400,3.33333333333333,1.25,2,r,r,0,800,0,400,=,L,S,0.312987391456625,0.455008913392152,1.34103056813615,1.42011935609552,1.04350208269699,1213101.4095486,1213101.73683889,1213101.73683889,1213104.13687143,2.4,1213105.516895,1213105.516895,1213108.71693339,3.2,1213110.27627995,1213111.26530467,0.989024716429412,77,Shorter,Ring,78,L,Middle
229,Spatial,4132,3,3,39,800,5,5,1,r,r,0,400,0,800,L,S,=,0.221492048483109,0.201216239107767,1.79328950061947,1.47836876051473,1.13280092953181,1213112.47629468,1213112.71700433,1213112.71700433,1213113.5170066,0.8,1213115.33704208,1213115.33704208,1213116.93705436,1.6,1213118.57629092,1213120.649301,2.07301008026116,66,Longer,Index,66,L,Index
229,Spatial,4132,3,3,40,400,5,5,2,r,r,0,400,0,400,=,L,S,0.203207138653547,0.433382477786997,1.05580270321322,1.1695541287163,1.88448539852207,1213121.94300367,1213122.15713302,1213122.15713302,1213122.95714138,0.8,1213124.04716653,1213124.04716653,1213124.84716174,0.8,1213126.15969031,1213126.71332606,0.553635746706277,66,Equals to,Index,66,=,Index
229,Spatial,4132,3,3,41,400,5,5,2,m,m,-800,-400,-800,-400,L,S,=,0.475145208461886,0.308027666379898,1.96369519496102,1.0578757729139,1.87385693962027,1213128.75972894,1213129.24723897,1213129.24723897,1213130.0472422,0.8,1213132.03729128,1213132.03729128,1213132.83728617,0.8,1213134.04306269,1213134.49731392,0.454251235816628,77,Equals to,Ring,77,=,Ring
229,Spatial,4132,3,3,42,800,1.25,3.33333333333333,1,m,m,-800,-400,-800,0,L,S,=,0.494771276816435,0.467727823978654,1.47992163316807,1.44816287345675,1.47891680312767,1213136.55976567,1213137.06734948,1213137.06734948,1213140.26738819,3.2,1213141.76742416,1213141.76742416,1213144.1674503,2.4,1213145.75979553,1213146.72934435,0.969548817491159,66,Longer,Index,77,=,Ring
229,Spatial,4132,3,3,43,1200,20,7.5,1,l,l,-1600,0,-1600,-400,=,L,S,0.267941596175559,0.458917774106112,1.11580585977708,1.32775773466032,1.16728524435095,1213148.37649919,1213148.65752184,1213148.65752184,1213149.4575395,0.8,1213150.60754888,1213150.60754888,1213152.20757751,1.6,1213153.69318495,1213155.52137761,1.82819266873412,77,Shorter,Ring,77,S,Ring
229,Spatial,4132,3,3,44,800,7.5,3.33333333333333,1,m,m,-800,400,-800,0,=,L,S,0.244202796128518,0.312654919386491,1.68928871540903,1.19138008521224,1.88272487185011,1213156.87654858,1213157.13764493,1213157.13764493,1213158.73766042,1.6,1213160.46768652,1213160.46768652,1213162.86774922,2.4,1213164.19323197,1213164.5933252,0.400093225063756,77,Shorter,Ring,77,S,Ring
229,Spatial,4132,3,3,45,800,1.66666666666667,5,1,r,r,0,400,0,800,=,L,S,0.322034169408203,0.394513792288517,1.9774809636857,1.30214463085479,1.58230664741722,1213166.65994394,1213166.99778578,1213166.99778578,1213169.39781512,2.4,1213171.39784564,1213171.39784564,1213172.99787171,1.6,1213174.44329941,1213175.3453833,0.902083896566182,78,Longer,Middle,66,=,Index
229,Spatial,4132,3,3,46,400,1.66666666666667,1.25,2,l,l,-1600,-1200,-1600,-1200,=,L,S,0.320930208596824,0.341056027230829,1.6527575181138,1.9989657236823,1.22927432808257,1213177.12666905,1213177.45793381,1213177.45793381,1213179.8579763,2.4,1213181.5480003,1213181.5480003,1213184.74803516,3.2,1213186.89336793,1213187.37739551,0.484027581289411,66,Equals to,Index,66,=,Index
229,Spatial,4132,3,3,47,800,5,5,1,m,m,-800,-400,-800,0,=,L,S,0.200716283259925,0.357298325265379,1.3993521742943,1.14448447112304,1.0833771294319,1213188.77674492,1213188.98810654,1213188.98810654,1213189.78811618,0.8,1213191.22814034,1213191.22814034,1213192.82817667,1.6,1213194.12675631,1213195.6893461,1.56258978438564,78,Longer,Middle,78,L,Middle
229,Spatial,4132,3,3,48,400,2.5,5,2,m,m,-800,-400,-800,-400,=,L,S,0.433796260065585,0.376671569331858,1.79217726004907,1.5068543875018,1.31019432762795,1213196.96010852,1213197.40823193,1213197.40823193,1213199.00825094,1.6,1213200.83827749,1213200.83827749,1213201.63828874,0.8,1213203.29348805,1213205.38534338,2.09185533039272,66,Equals to,Index,77,S,Ring
229,Spatial,4132,3,3,49,1200,10,5,1,l,l,-1600,0,-1600,-400,S,=,L,0.366081165399559,0.300515305001295,1.03040733620653,1.24685793122733,1.9924171638571,1213212.01022125,1213212.38844582,1213212.38844582,1213213.98848568,1.6,1213215.0584854,1213215.0584854,1213217.45852308,2.4,1213218.86021784,NaN,NaN,66,Shorter,Index,999,Missed,Missed
229,Spatial,4132,3,3,50,1200,10,5,1,l,l,-1600,0,-1600,-400,S,=,L,0.368758836317442,0.446749718685673,1.13736491381888,1.21590103007361,1.91403732550974,1213223.92694459,1213224.30861837,1213224.30861837,1213225.90864636,1.6,1213227.07866353,1213227.07866353,1213229.47868902,2.4,1213230.84365056,1213232.24142031,1.39776975126006,66,Shorter,Index,66,S,Index
229,Spatial,4132,3,3,51,800,5,5,1,r,r,0,1200,0,800,L,S,=,0.227013002146748,0.399437629971817,1.25591860421277,1.98332692943883,1.04941493213223,1213234.34367859,1213234.58877072,1213234.58877072,1213236.9888222,2.4,1213238.27882579,1213238.27882579,1213239.87884384,1.6,1213242.01037048,1213243.10536458,1.09499410470016,78,Shorter,Middle,77,=,Ring
229,Spatial,4132,3,3,52,1200,5,5,1,m,m,-800,800,-800,400,S,=,L,0.482282097117877,0.338429341868667,1.89420046905239,1.83735746696655,1.16391785727903,1213244.32708776,1213244.8289245,1213244.8289245,1213248.02896225,3.2,1213249.94899305,1213249.94899305,1213252.34903041,2.4,1213254.3271287,1213255.09744558,0.770316881826147,66,Shorter,Index,78,=,Middle
229,Spatial,4132,3,3,53,1200,20,7.5,1,r,r,0,1600,0,1200,S,=,L,0.293104902670072,0.340488280165603,1.04221653789252,1.87481711472939,1.75026630188285,1213256.42713184,1213256.7390922,1213256.7390922,1213257.53910409,0.8,1213258.6191231,1213258.6191231,1213260.21913794,1.6,1213262.22716102,1213263.65736854,1.43020751536824,66,Shorter,Index,78,=,Middle
229,Spatial,4132,3,3,54,400,2.5,1.25,2,m,m,-800,0,-800,-400,=,L,S,0.340236935907298,0.238181547517054,1.75317698658907,1.13475360088461,1.96872881520866,1213265.61052565,1213265.96923182,1213265.96923182,1213269.16927374,3.2,1213270.9493007,1213270.9493007,1213274.14934839,3.2,1213275.42681444,1213276.46546436,1.03864992340095,77,Shorter,Ring,77,S,Ring
229,Spatial,4132,3,3,55,800,2.5,3.33333333333333,1,m,m,-800,-400,-800,0,L,S,=,0.348176466666172,0.477298528866406,1.34020127155352,1.61890110209856,1.55035360131188,1213278.61060432,1213278.96941051,1213278.96941051,1213280.56943465,1.6,1213281.92945235,1213281.92945235,1213284.32950639,2.4,1213286.09397675,1213287.29739675,1.20342000760138,66,Longer,Index,66,L,Index
229,Spatial,4132,3,3,56,1600,15,20,2,m,m,-800,400,-800,800,S,=,L,0.334660769738021,0.235410709003243,1.86999039555259,1.54982046686319,1.39949977107315,1213289.01064903,1213289.35956239,1213289.35956239,1213290.15957364,0.8,1213292.05961013,1213292.05961013,1213292.85961913,0.8,1213294.56069192,1213294.96142579,0.400733866961673,77,Longer,Ring,78,=,Middle
229,Spatial,4132,3,3,57,1600,10,20,2,m,m,-800,800,-800,800,L,S,=,0.268392289847424,0.238909581590228,1.09998799871138,1.3913537773607,1.30477088642474,1213296.52737629,1213296.80967317,1213296.80967317,1213298.40969924,1.6,1213299.5397143,1213299.5397143,1213300.33972843,0.8,1213301.87738185,1213302.3774385,0.500056651420891,77,Equals to,Ring,77,=,Ring
229,Spatial,4132,3,3,58,800,1.25,3.33333333333333,1,m,m,-800,-400,-800,0,S,=,L,0.291030616142074,0.414763897110164,1.56671357650333,1.02572501478647,1.23911174916853,1213303.87740193,1213304.17979256,1213304.17979256,1213307.37982903,3.2,1213308.97985454,1213308.97985454,1213311.37988452,2.4,1213312.54411415,1213312.90542849,0.361314339097589,77,Longer,Ring,77,L,Ring
229,Spatial,4132,3,3,59,1200,10,7.5,1,l,l,-1600,-800,-1600,-400,L,S,=,0.315917652822023,0.4447493745904,1.14130309752417,1.38198847026876,1.75358166482599,1213314.31082993,1213314.63993386,1213314.63993386,1213315.43994254,0.8,1213316.619962,1213316.619962,1213318.21999416,1.6,1213319.74416504,1213320.12140982,0.377244778908789,66,Longer,Index,77,=,Ring
229,Spatial,4132,3,3,60,1200,5,5,1,r,r,0,1600,0,1200,L,S,=,0.371847437051601,0.305341686526892,1.9732652811626,1.80494525076641,1.30827462930981,1213322.06086891,1213322.45004561,1213322.45004561,1213325.6500949,3.2,1213327.65012061,1213327.65012061,1213330.05015989,2.4,1213331.9942647,1213332.58540523,0.591140534961596,78,Shorter,Middle,77,=,Ring
229,Spatial,4132,3,3,61,800,5,5,1,r,r,0,1200,0,800,S,=,L,0.487410009245189,0.351532515405046,1.45444827517486,1.71410028886476,1.15469982732756,1213334.0608737,1213334.57023702,1213334.57023702,1213336.97025128,2.4,1213338.45028557,1213338.45028557,1213340.0503049,1.6,1213341.9109603,1213343.74541526,1.83445495180786,66,Shorter,Index,78,=,Middle
229,Spatial,4132,3,3,62,1200,6.66666666666667,7.5,1,l,l,-1600,0,-1600,-400,=,L,S,0.465929156533311,0.434915243296968,1.88385424664069,1.90728093128261,1.71038619683476,1213345.07766198,1213345.56038583,1213345.56038583,1213347.96041774,2.4,1213349.88044661,1213349.88044661,1213351.48046787,1.6,1213353.52770342,1213354.56940106,1.0416976402048,77,Shorter,Ring,77,S,Ring
229,Spatial,4132,3,3,63,1200,6.66666666666667,7.5,1,l,l,-1600,0,-1600,-400,S,=,L,0.358617984018039,0.373332761574491,1.17768257474147,1.62430729576927,1.24258592611548,1213356.46106254,1213356.83055771,1213356.83055771,1213359.23057742,2.4,1213360.44060023,1213360.44060023,1213362.04063367,1.6,1213363.81108763,1213364.36952687,0.558439244050533,66,Shorter,Index,66,S,Index
229,Spatial,4132,3,3,64,400,10,5,2,r,r,0,800,0,400,S,=,L,0.442342288560158,0.477076672339524,1.14323017577643,1.14542295272059,1.42842161990929,1213365.77779064,1213366.23068173,1213366.23068173,1213367.03069137,0.8,1213368.20071592,1213368.20071592,1213369.00072524,0.8,1213370.29445564,1213371.01745677,0.723001129925251,66,Shorter,Index,78,=,Middle
229,Spatial,4132,3,3,65,400,2.5,1.25,2,m,m,-800,0,-800,-400,L,S,=,0.415012636330028,0.382061451613623,1.50247904909954,1.41874195936348,1.57266037794465,1213372.62782866,1213373.06079549,1213373.06079549,1213376.26083228,3.2,1213377.7908517,1213377.7908517,1213380.99089073,3.2,1213382.56119814,1213383.10543612,0.544237976195291,78,Shorter,Middle,78,S,Middle
229,Spatial,4132,3,3,66,1200,5,5,1,r,r,0,800,0,1200,S,=,L,0.392240078011969,0.210534958590414,1.05566407188569,1.32519387320602,1.04905221540824,1213384.84457281,1213385.25096637,1213385.25096637,1213386.85098314,1.6,1213387.93099862,1213387.93099862,1213390.33103438,2.4,1213391.79459445,1213392.44943324,0.654838787158951,77,Longer,Ring,78,=,Middle
229,Spatial,4132,3,3,67,400,10,5,2,r,r,0,800,0,400,S,=,L,0.210925096167125,0.290096072021086,1.9805236180578,1.56520049927558,1.5600529173706,1213393.66128951,1213393.89108858,1213393.89108858,1213394.69109245,0.8,1213396.71113012,1213396.71113012,1213397.5111388,0.8,1213399.2279632,1213401.43344382,2.20548061397858,66,Shorter,Index,66,S,Index
229,Spatial,4132,3,3,68,400,1.25,1.25,2,r,r,0,400,0,400,S,=,L,0.44681648678397,0.455825554414073,1.41228162778062,1.08680959939353,1.62934659129661,1213403.17799533,1213403.64123279,1213403.64123279,1213406.84127246,3.2,1213408.29129537,1213408.29129537,1213411.49133761,3.2,1213412.72803291,1213413.76949114,1.04145822557621,78,Equals to,Middle,78,=,Middle
229,Spatial,4132,3,3,69,1200,3.33333333333333,7.5,1,l,l,-1600,-800,-1600,-400,=,L,S,0.251782193689149,0.296864621091496,1.68401699145059,1.48034927829572,1.38725270957466,1213415.59474313,1213415.86141053,1213415.86141053,1213418.26144533,2.4,1213419.9814685,1213419.9814685,1213421.58148045,1.6,1213423.21142938,1213424.9135374,1.70210802089423,78,Longer,Middle,66,=,Index
229,Spatial,4132,3,3,70,1600,6.66666666666667,5,2,m,m,-800,800,-800,800,L,S,=,0.258727663582556,0.287306594845894,1.05458865950599,1.50905589565899,1.06598790513758,1213426.49481295,1213426.7715747,1213426.7715747,1213429.17159923,2.4,1213430.2616138,1213430.2616138,1213433.46166598,3.2,1213435.11151816,1213435.68947442,0.577956255758181,77,Equals to,Ring,77,=,Ring
229,Spatial,4132,3,3,71,1200,10,7.5,1,m,m,-800,0,-800,400,=,L,S,0.315207013211938,0.358385546458113,1.50112190696421,1.69625983574777,1.92871589907412,1213436.92819861,1213437.26172287,1213437.26172287,1213438.06172513,0.8,1213439.59175418,1213439.59175418,1213441.19176967,1.6,1213443.04480259,1213443.48144577,0.436643177643418,78,Longer,Middle,78,L,Middle
229,Spatial,4132,3,3,72,1600,5,5,2,m,m,-800,800,-800,800,S,=,L,0.288620407866608,0.447127140852296,1.05913071723312,1.13615683402974,1.06604226493624,1213445.59493538,1213445.90184765,1213445.90184765,1213449.10188892,3.2,1213450.18190761,1213450.18190761,1213453.38194279,3.2,1213454.66160954,1213455.02547201,0.363862470956519,78,Equals to,Middle,78,=,Middle
229,Spatial,4132,3,3,73,1200,5,5,1,l,l,-1600,0,-1600,-400,L,S,=,0.441901045020797,0.229560840793472,1.94736532167075,1.11627359126791,1.73136634468794,1213456.77832564,1213457.23200696,1213457.23200696,1213460.43204503,3.2,1213462.41208926,1213462.41208926,1213464.81211603,2.4,1213466.07835689,1213466.70552126,0.627164372010157,78,Shorter,Middle,78,S,Middle
229,Spatial,4132,3,3,74,1600,10,20,2,m,m,-800,800,-800,800,S,=,L,0.38680955695245,0.262391262559612,1.72856980305752,1.1226726023631,1.42841670230997,1213468.62838113,1213469.03218411,1213469.03218411,1213470.63219414,1.6,1213472.39223064,1213472.39223064,1213473.1922374,0.8,1213474.46128046,1213475.01747698,0.556196518242359,78,Equals to,Middle,78,=,Middle
229,Spatial,4132,3,3,75,1600,6.66666666666667,5,2,m,m,-800,800,-800,800,S,=,L,0.31933899717411,0.498375581182112,1.19705137183138,1.22969927227553,1.28554477286127,1213476.62842631,1213476.96230442,1213476.96230442,1213479.362336,2.4,1213480.59235152,1213480.59235152,1213483.79239889,3.2,1213485.17845536,1213485.66551017,0.487054812489077,78,Equals to,Middle,78,=,Middle
229,Spatial,4132,3,3,76,400,2.5,5,2,r,r,0,400,0,400,S,=,L,0.464094562954433,0.266118838064904,1.46750681107809,1.71827360315385,1.1729259418527,1213487.12850861,1213487.61248635,1213487.61248635,1213489.21248194,1.6,1213490.71249353,1213490.71249353,1213491.51250478,0.8,1213493.37853853,1213495.86550113,2.48696260037832,78,Equals to,Middle,66,S,Index
229,Spatial,4132,3,3,77,800,1.25,3.33333333333333,1,m,m,-800,-400,-800,0,L,S,=,0.231186642431102,0.264834520995689,1.99653057922468,1.18765457932686,1.86549005024738,1213497.22855782,1213497.47259511,1213497.47259511,1213500.6726505,3.2,1213502.7026664,1213502.7026664,1213505.10270055,2.4,1213506.42859719,1213506.86552038,0.436923187924549,66,Longer,Index,77,=,Ring
229,Spatial,4132,3,3,78,1600,7.5,20,2,l,l,-1600,-400,-1600,0,L,S,=,0.211448420833128,0.352221534699734,1.03955168361503,1.56884197919314,1.62392018391292,1213508.91194897,1213509.14276622,1213509.14276622,1213510.74279582,1.6,1213511.81280484,1213511.81280484,1213512.61282346,0.8,1213514.32865562,1213515.37752832,1.04887270089239,66,Longer,Index,77,=,Ring
229,Spatial,4132,3,3,79,400,5,5,2,m,m,-800,0,-800,-400,L,S,=,0.452435972138246,0.304582816308909,1.33803736504881,1.90904560382625,1.58699822872905,1213517.17867758,1213517.6428878,1213517.6428878,1213519.24291131,1.6,1213520.61292905,1213520.61292905,1213521.41293998,0.8,1213523.46202638,1213523.87353786,0.411511486396194,78,Shorter,Middle,78,S,Middle
229,Spatial,4132,3,3,80,800,5,5,1,m,m,-800,-400,-800,0,L,S,=,0.207457057589017,0.238147887002565,1.53346774230786,1.0895587817174,1.0167966776893,1213525.62872222,1213525.85300937,1213525.85300937,1213526.65302222,0.8,1213528.21304595,1213528.21304595,1213529.81307427,1.6,1213531.04538741,1213531.45751296,0.41212555160746,66,Longer,Index,66,L,Index
229,Spatial,4132,3,3,81,1200,5,5,1,r,r,0,800,0,1200,L,S,=,0.245426710575392,0.280248079973518,1.88501779968965,1.03662443399802,1.45389213381369,1213532.64544156,1213532.90310712,1213532.90310712,1213534.50312805,1.6,1213536.41316394,1213536.41316394,1213538.81320066,2.4,1213539.99545767,1213540.64955957,0.654101902619004,66,Longer,Index,77,=,Ring
229,Spatial,4132,3,3,82,800,7.5,3.33333333333333,1,l,l,-1600,-400,-1600,-800,L,S,=,0.270040732004564,0.311147318543952,1.31546364633544,1.00725952111477,1.63855130731312,1213542.27882111,1213542.5632522,1213542.5632522,1213544.16327377,1.6,1213545.5132956,1213545.5132956,1213547.91333039,2.4,1213549.06217274,1213550.67352542,1.61135267512873,78,Shorter,Middle,77,=,Ring
229,Spatial,4132,3,3,83,1600,5,5,2,r,r,0,1200,0,1600,=,L,S,0.23020797312133,0.341594142925629,1.24952896726568,1.38613992215891,1.73136317404125,1213552.51217605,1213552.7534003,1213552.7534003,1213555.15342483,2.4,1213556.42346233,1213556.42346233,1213559.62349944,3.2,1213561.16226237,1213561.57752216,0.415259788744152,78,Longer,Middle,66,=,Index
229,Spatial,4132,3,3,84,1200,10,5,1,l,l,-1600,0,-1600,-400,L,S,=,0.315215821959456,0.468969622606905,1.12381430434489,1.84777796021072,1.42573327288579,1213563.49561302,1213563.82357641,1213563.82357641,1213565.42358387,1.6,1213566.58361223,1213566.58361223,1213568.98362873,2.4,1213570.97897238,1213572.72950604,1.75053365458734,78,Shorter,Middle,77,=,Ring
229,Spatial,4132,3,3,85,1200,10,7.5,1,l,l,-1600,-800,-1600,-400,L,S,=,0.339096246581188,0.291631626854165,1.82268886498801,1.84999011550178,1.90895431095783,1213574.3290073,1213574.68371277,1213574.68371277,1213575.48373749,0.8,1213577.33375835,1213577.33375835,1213578.93377447,1.6,1213580.92901542,1213581.25755216,0.328536745626479,66,Longer,Index,77,=,Ring
229,Spatial,4132,3,3,86,800,3.75,3.33333333333333,1,l,l,-1600,-400,-1600,-800,L,S,=,0.385965844505545,0.242147792701151,1.15530791145221,1.48401155828565,1.1790092429083,1213583.36239608,1213583.76384305,1213583.76384305,1213586.96390838,3.2,1213588.15392051,1213588.15392051,1213590.55394376,2.4,1213592.17906022,1213592.81755308,0.638492858503014,78,Shorter,Middle,77,=,Ring
229,Spatial,4132,3,3,87,1200,2.5,5,1,m,m,-800,0,-800,400,L,S,=,0.211990078931294,0.340877075453102,1.42626662456253,1.55253682831671,1.19561139348924,1213594.17911732,1213594.40400568,1213594.40400568,1213597.60404311,3.2,1213599.05407052,1213599.05407052,1213601.45410114,2.4,1213603.14581044,1213605.38554709,2.23973665433005,66,Longer,Index,66,L,Index
229,Spatial,4132,3,3,88,1200,20,7.5,1,r,r,0,1600,0,1200,=,L,S,0.348067803337232,0.385993893535958,1.98242956774837,1.8020909629497,1.57550482890827,1213606.74586836,1213607.11419013,1213607.11419013,1213607.91420073,0.8,1213609.92422584,1213609.92422584,1213611.52426282,1.6,1213613.47923416,1213615.06557742,1.58634325955063,77,Shorter,Ring,77,S,Ring
229,Spatial,4132,3,3,89,1200,2.5,5,1,l,l,-1600,-800,-1600,-400,S,=,L,0.476209422482895,0.398658477927455,1.37801255151476,1.13196091839199,1.61384342338069,1213616.82927055,1213617.32433864,1213617.32433864,1213620.5243844,3.2,1213621.93439848,1213621.93439848,1213624.33443167,2.4,1213625.6126137,1213626.12155996,0.508946255780756,77,Longer,Ring,78,=,Middle
229,Spatial,4132,3,3,90,1200,5,5,1,r,r,0,800,0,1200,S,=,L,0.201442591027021,0.234790442932018,1.0218844478742,1.34388054447917,1.23909860231458,1213627.91265199,1213628.12449782,1213628.12449782,1213629.7245194,1.6,1213630.78453671,1213630.78453671,1213633.1845683,2.4,1213634.67935183,1213635.00956151,0.330209682695568,77,Longer,Ring,78,=,Middle
229,Spatial,4132,3,3,91,800,15,5,1,l,l,-1600,-400,-1600,-800,=,L,S,0.459999124723788,0.408859757308991,1.23714442579273,1.61723208346934,1.84745826672987,1213636.4293507,1213636.9046537,1213636.9046537,1213637.7046271,0.8,1213638.96465333,1213638.96465333,1213640.56468357,1.6,1213642.32939993,1213643.84959351,1.52019358146936,77,Shorter,Ring,66,=,Index
229,Spatial,4132,3,3,92,400,5,5,2,r,r,0,800,0,400,=,L,S,0.464195222138355,0.369625827673065,1.40625316440596,1.1549159222507,1.41244699522685,1213645.8627099,1213646.34476219,1213646.34476219,1213647.94478761,1.6,1213649.38480728,1213649.38480728,1213650.18482558,0.8,1213651.47943049,1213653.57759563,2.09816513978876,77,Shorter,Ring,77,S,Ring
229,Spatial,4132,3,3,93,800,7.5,3.33333333333333,1,m,m,-800,400,-800,0,S,=,L,0.430745521740151,0.470942769414077,1.12327432976998,1.99298405872524,1.55705870842667,1213655.17948238,1213655.62490171,1213655.62490171,1213657.22492746,1.6,1213658.38493624,1213658.38493624,1213660.78497103,2.4,1213662.92949245,1213663.35357787,0.424085423117504,66,Shorter,Index,78,=,Middle
229,Spatial,4132,3,3,94,800,1.25,3.33333333333333,1,l,l,-1600,-1200,-1600,-800,=,L,S,0.225919538332568,0.476006785640661,1.4212725111021,1.60439510094337,1.40763525370679,1213665.09619994,1213665.33503707,1213665.33503707,1213668.53507963,3.2,1213669.9851096,1213669.9851096,1213672.385146,2.4,1213674.12958216,1213674.51357571,0.383993543917313,78,Longer,Middle,66,=,Index
229,Spatial,4132,3,3,95,800,7.5,3.33333333333333,1,r,r,0,1200,0,800,=,L,S,0.231658557826723,0.426691904998202,1.34213520244775,1.43779579075027,1.1795493245927,1213676.09618213,1213676.34521227,1213676.34521227,1213677.9452146,1.6,1213679.32525036,1213679.32525036,1213681.72527392,2.4,1213683.31294952,1213683.68963771,0.376688187243417,77,Shorter,Ring,66,=,Index
229,Spatial,4132,3,3,96,1600,15,20,2,r,r,0,1200,0,1600,L,S,=,0.341069581011254,0.404961725732163,1.67653560049786,1.5612463540216,1.02892566553272,1213685.0296362,1213685.38532409,1213685.38532409,1213686.1853424,0.8,1213687.88536804,1213687.88536804,1213688.68536678,0.8,1213690.39632733,1213690.85760779,0.461280462564901,66,Longer,Index,77,=,Ring
