Subject,Task,SequenceOrder,ListNo,RunNo,TrialNo,Aud_Probe_Dist,Aud_Standard_Vel,Aud_Probe_Vel,Main_Control,Aud_Std_StartCode,Aud_Probe_StartCode,Aud_Std_StartPt,Aud_Std_EndPt,Aud_Probe_StartPt,Aud_Probe_EndPt,RespIndex,RespMiddle,RespRing,ISI_Cross_Std,ISI_Cross_Probe,ISI_Std_Probe,ISI_Probe_Response,ITI,TrialOnset,StdOnset,StdOnsetByStop,StdOffset,StdDur,ProbeOnset,ProbeOnsetByStop,ProbeOffset,ProbeDur,RespWinStart,RespTime,RT,CorrectKC,CorrectResponse,CorrectFinger,SubjRespKC,SubjResponse,SubjRespFinger
216,Spatial,3421,3,1,1,800,3.75,3.33333333333333,1,r,r,0,1200,0,800,S,=,L,0.354690553473897,0.464221347264895,1.00780890186175,1.52996632155074,1.1072337545453,173491.877934458,173492.243752173,173492.243752173,173495.443868194,3.2,173496.484212318,173496.484212318,173498.884075804,2.4,173500.561333911,173501.242654433,0.681320521252928,66,Shorter,Index,78,=,Middle
216,Spatial,3421,3,1,2,800,5,5,1,l,l,-1600,-400,-1600,-800,=,L,S,0.342267482132787,0.201586542342332,1.25208050951744,1.05300063566293,1.26415472759868,173502.511406072,173502.864307699,173502.864307699,173505.264256839,2.4,173506.544208097,173506.544208097,173508.144087879,1.6,173509.344715715,173509.898505254,0.553789539670106,77,Shorter,Ring,66,=,Index
216,Spatial,3421,3,1,3,1600,3.75,5,2,l,l,-1600,-400,-1600,0,L,S,=,0.427313738924702,0.313226366313232,1.0346944390037,1.89170368142395,1.05199303299979,173511.328076028,173511.774244418,173511.774244418,173514.974274785,3.2,173516.044662353,173516.044662353,173519.244192589,3.2,173521.278183272,173521.746926234,0.468742962402757,66,Longer,Index,66,L,Index
216,Spatial,3421,3,1,4,800,2.5,3.33333333333333,1,l,l,-1600,-1200,-1600,-800,S,=,L,0.446448893308879,0.427433944265441,1.22721538461997,1.31124654791367,1.7046954095615,173522.961486738,173523.424690686,173523.424690686,173525.02427116,1.6,173526.284710909,173526.284710909,173528.684598134,2.4,173530.144842817,173530.70668032,0.561837503424613,77,Longer,Ring,77,L,Ring
216,Spatial,3421,3,1,5,1600,5,5,2,m,m,-800,800,-800,800,S,=,L,0.280588830359758,0.356705458670763,1.8104153135922,1.08161276566295,1.19876480482151,173532.578241401,173532.874820386,173532.874820386,173536.074636137,3.2,173537.924910756,173537.924910756,173541.124477243,3.2,173542.361591512,173543.018694104,0.657102591881994,78,Equals to,Middle,77,L,Ring
216,Spatial,3421,3,1,6,1200,5,5,1,l,l,-1600,-800,-1600,-400,S,=,L,0.492584849728688,0.249189723459296,1.92556751754835,1.98977918175159,1.16788018025983,173544.378342839,173544.884772311,173544.884772311,173546.484649206,1.6,173548.435026611,173548.435026611,173550.834919931,2.4,173552.961653235,173553.354808471,0.393155236815801,77,Longer,Ring,77,L,Ring
216,Spatial,3421,3,1,7,400,3.33333333333333,1.25,2,r,r,0,800,0,400,L,S,=,0.400656759312164,0.435917772607532,1.49961213947728,1.04363409356236,1.00196624208629,173554.678405459,173555.095050748,173555.095050748,173557.494741,2.4,173559.025106253,173559.025106253,173562.225008299,3.2,173563.428390221,173564.354720893,0.926330671325559,78,Shorter,Middle,77,=,Ring
216,Spatial,3421,3,1,8,400,1.66666666666667,1.25,2,l,l,-1600,-1200,-1600,-1200,=,L,S,0.452985425011286,0.442131565001223,1.77327805988104,1.42716058629631,1.28090032599275,173565.528449377,173565.995287692,173565.995287692,173568.395165935,2.4,173570.205151974,173570.205151974,173573.405191644,3.2,173574.995130223,173575.714647121,0.719516897603171,66,Equals to,Index,78,L,Middle
216,Spatial,3421,3,1,9,1600,15,20,2,r,r,0,1200,0,1600,S,=,L,0.442953695765358,0.467223310352832,1.11738989945462,1.32389183433516,1.01540859135961,173577.145222326,173577.605217931,173577.605217931,173578.405224045,0.8,173579.56533356,173579.56533356,173580.365198843,0.8,173581.828541832,173582.290702255,0.462160422903253,77,Longer,Ring,78,=,Middle
216,Spatial,3421,3,1,10,1200,10,7.5,1,m,m,-800,0,-800,400,L,S,=,0.389798019820442,0.422509761404483,1.38338490661524,1.95630786244045,1.39816067010038,173583.461755891,173583.865406768,173583.865406768,173584.665189925,0.8,173586.075332643,173586.075332643,173587.67517425,1.6,173589.778565989,173590.202557691,0.423991702788044,66,Longer,Index,77,=,Ring
216,Spatial,3421,3,1,11,800,5,5,1,m,m,-800,-400,-800,0,S,=,L,0.298181437199276,0.484763401338686,1.33605957541817,1.62867661011103,1.15281665530895,173591.761985008,173592.075430808,173592.075430808,173592.87529577,0.8,173594.245813647,173594.245813647,173595.845275746,1.6,173597.628612152,173598.490610442,0.861998289474286,77,Longer,Ring,77,L,Ring
216,Spatial,3421,3,1,12,1200,10,5,1,l,l,-1600,0,-1600,-400,S,=,L,0.306373148473466,0.23408217357148,1.34101585795128,1.44992780345473,1.24622501829571,173599.795374418,173600.115706557,173600.115706557,173601.715594039,1.6,173603.085735936,173603.085735936,173605.485614179,2.4,173607.078255196,173608.522809996,1.44455480040051,66,Shorter,Index,66,S,Index
216,Spatial,3421,3,1,13,1200,5,5,1,r,r,0,800,0,1200,L,S,=,0.432266643304081,0.412157452560398,1.61897533697114,1.23989538181134,1.51993832829871,173609.928760427,173610.376015374,173610.376015374,173611.975547728,1.6,173613.62580958,173613.62580958,173616.025617887,2.4,173617.412072619,173618.098615867,0.686543247662485,66,Longer,Index,66,L,Index
216,Spatial,3421,3,1,14,1200,10,5,1,l,l,-1600,0,-1600,-400,S,=,L,0.281652423156498,0.247433324799857,1.02623059257674,1.81319191710334,1.82082105650813,173619.762180698,173620.055790979,173620.055790979,173621.655772777,1.6,173622.716108971,173622.716108971,173625.115944868,2.4,173627.078829752,173628.138852799,1.06002304641879,66,Shorter,Index,78,=,Middle
216,Spatial,3421,3,1,15,800,1.66666666666667,5,1,m,m,-800,-400,-800,0,L,S,=,0.246258385849156,0.422377867572025,1.78326280897973,1.63084558751448,1.81997167152298,173630.112228465,173630.376058041,173630.376058041,173632.77595489,2.4,173634.59624349,173634.59624349,173636.196084135,1.6,173637.978870045,173638.618551155,0.639681109838421,66,Longer,Index,66,L,Index
216,Spatial,3421,3,1,16,1600,20,20,2,l,l,-1600,0,-1600,0,S,=,L,0.264231933943994,0.313950655290269,1.71654405596605,1.00131477448333,1.38950123968753,173640.595631445,173640.876192778,173640.876192778,173641.676040095,0.8,173643.426343779,173643.426343779,173644.226199117,0.8,173645.378952684,173646.186565383,0.807612699398305,78,Equals to,Middle,78,=,Middle
216,Spatial,3421,3,1,17,800,5,5,1,m,m,-800,-400,-800,0,L,S,=,0.336763833088299,0.449846751589659,1.81033259675588,1.37136684901765,1.34817569218313,173647.729018737,173648.076533726,173648.076533726,173648.876095851,0.8,173650.716385503,173650.716385503,173652.316370829,1.6,173653.829039631,173654.314726166,0.485686535044806,66,Longer,Index,66,L,Index
216,Spatial,3421,3,1,18,400,10,5,2,r,r,0,800,0,400,=,L,S,0.275979300178618,0.372078668890401,1.84812479055111,1.54535794462581,1.95208917013845,173655.81240003,173656.106607966,173656.106607966,173656.906448547,0.8,173658.796506805,173658.796506805,173659.596344498,0.8,173661.295727621,173662.162770204,0.867042582627619,77,Shorter,Ring,78,L,Middle
216,Spatial,3421,3,1,19,1600,10,20,2,m,m,-800,800,-800,800,=,L,S,0.351970437270234,0.405286568591589,1.4671813469119,1.52374414357615,1.36009136055079,173664.26244953,173664.626547104,173664.626547104,173666.226341232,1.6,173667.726676194,173667.726676194,173668.526436575,0.8,173670.195812099,173670.674797397,0.478985298715997,66,Equals to,Index,66,=,Index
216,Spatial,3421,3,1,20,800,2.5,3.33333333333333,1,l,l,-1600,-1200,-1600,-800,L,S,=,0.434538570178497,0.441012908823904,1.8011321820526,1.60818999617349,1.36101382982959,173672.179168648,173672.626930142,173672.626930142,173674.226531789,1.6,173676.066794814,173676.066794814,173678.466652847,2.4,173680.212534639,173680.714762289,0.50222765019862,66,Longer,Index,78,S,Middle
216,Spatial,3421,3,1,21,1200,10,5,1,l,l,-1600,0,-1600,-400,S,=,L,0.472049807672209,0.28033613335474,1.60319566250236,1.23977220140694,1.78141513611941,173682.212507151,173682.696681193,173682.696681193,173684.296721376,1.6,173685.926797394,173685.926797394,173688.326756799,2.4,173689.712602048,173690.714709036,1.00210698752198,66,Shorter,Index,66,S,Index
216,Spatial,3421,3,1,22,400,1.25,1.25,2,r,r,0,400,0,400,=,L,S,0.314874745059219,0.288534045961275,1.62958930008087,1.00638729829276,1.51682738254762,173692.645920391,173692.977225568,173692.977225568,173696.176792697,3.2,173697.83707705,173697.83707705,173701.036992249,3.2,173702.179291515,173702.658710773,0.479419258248527,66,Equals to,Index,77,S,Ring
216,Spatial,3421,3,1,23,400,10,5,2,r,r,0,800,0,400,=,L,S,0.283568126154893,0.222095050149611,1.83568185394715,1.03444986226751,1.19600599890689,173704.329333251,173704.627204748,173704.627204748,173705.427066181,0.8,173707.297177602,173707.297177602,173708.097155807,0.8,173709.279411265,173710.282796728,1.00338546244893,77,Shorter,Ring,78,L,Middle
216,Spatial,3421,3,1,24,800,3.75,3.33333333333333,1,r,r,0,1200,0,800,=,L,S,0.416299965378351,0.332532049279,1.02095716630517,1.80354040111654,1.10152868566779,173711.629381757,173712.057240364,173712.057240364,173715.25721844,3.2,173716.317432088,173716.317432088,173718.717323804,2.4,173720.662749672,173721.122692069,0.459942396759288,77,Shorter,Ring,66,=,Index
216,Spatial,3421,3,1,25,400,5,5,2,r,r,0,800,0,400,L,S,=,0.241326784704826,0.316661604218499,1.29940279016761,1.70203325695637,1.83037523884293,173725.262820056,173725.517542059,173725.517542059,173727.117410293,1.6,173728.447594998,173728.447594998,173729.24742435,0.8,173731.096164618,173732.306794654,1.21063003619201,78,Shorter,Middle,77,=,Ring
216,Spatial,3421,3,1,26,1600,10,20,2,m,m,-800,800,-800,800,=,L,S,0.319053978279528,0.403986551972199,1.75972606924686,1.73781292508278,1.87520359468334,173734.279523322,173734.617629445,173734.617629445,173736.217471694,1.6,173738.007885272,173738.007885272,173738.807702755,0.8,173740.696215754,173741.338833486,0.642617732810322,66,Equals to,Index,66,=,Index
216,Spatial,3421,3,1,27,1200,6.66666666666667,7.5,1,r,r,0,1600,0,1200,L,S,=,0.219693530839271,0.421227739251761,1.57268412967194,1.47188607495149,1.51584379943465,173743.379621877,173743.617774448,173743.617774448,173746.017611307,2.4,173747.617876463,173747.617876463,173749.217839654,1.6,173750.82967692,173751.394828862,0.565151941787917,78,Shorter,Middle,77,=,Ring
216,Spatial,3421,3,1,28,400,2.5,5,2,r,r,0,400,0,400,=,L,S,0.435662547119802,0.351461083462187,1.99021097479885,1.78510073122765,1.81347602712982,173753.063029925,173753.518004335,173753.518004335,173755.117946353,1.6,173757.137949375,173757.137949375,173757.937801825,0.8,173759.863002079,173760.346862523,0.483860443346202,66,Equals to,Index,66,=,Index
216,Spatial,3421,3,1,29,800,5,5,1,r,r,0,400,0,800,S,=,L,0.468432771535608,0.322353699380777,1.03253464789634,1.62407362316779,1.3055105462716,173762.296424403,173762.77822461,173762.77822461,173763.577975687,0.8,173764.648294282,173764.648294282,173766.24789208,1.6,173768.013120771,173768.562882677,0.549761905829655,77,Longer,Ring,78,=,Middle
216,Spatial,3421,3,1,30,800,1.25,3.33333333333333,1,m,m,-800,-400,-800,0,L,S,=,0.492349472651032,0.339484182514644,1.65711154832781,1.2176827379686,1.29206064942507,173770.029787443,173770.538216154,173770.538216154,173773.738143544,3.2,173775.418173911,173775.418173911,173777.818054399,2.4,173779.179797741,173779.722731977,0.542934236204019,66,Longer,Index,66,L,Index
216,Spatial,3421,3,1,31,1200,20,7.5,1,r,r,0,1600,0,1200,L,S,=,0.489725370845164,0.245820617710118,1.48422143388815,1.03983303914262,1.03166232992826,173781.163213231,173781.668342813,173781.668342813,173782.468173449,0.8,173783.978412215,173783.978412215,173785.578428339,1.6,173786.763249525,173787.842824265,1.07957474060822,78,Shorter,Middle,78,S,Middle
216,Spatial,3421,3,1,32,1200,2.5,5,1,r,r,0,800,0,1200,S,=,L,0.394118741091389,0.266884228058766,1.40440549349157,1.49661831442223,1.21452682652902,173789.029931162,173789.438427434,173789.438427434,173792.638281681,3.2,173794.068533562,173794.068533562,173796.468518311,2.4,173798.113250541,173798.578823657,0.46557311626384,77,Longer,Ring,78,=,Middle
216,Spatial,3421,3,1,33,800,1.25,3.33333333333333,1,l,l,-1600,-1200,-1600,-800,S,=,L,0.255894103968643,0.316827425616356,1.89624410807597,1.47693116320377,1.91335100834773,173799.946675944,173800.218864662,173800.218864662,173803.418424091,3.2,173805.33886103,173805.33886103,173807.738750822,2.4,173809.363395715,173810.914823177,1.55142746216734,77,Longer,Ring,78,=,Middle
216,Spatial,3421,3,1,34,400,1.25,1.25,2,r,r,0,400,0,400,=,L,S,0.360162063106782,0.405751896986456,1.46181303836566,1.24129922192738,1.13932768727758,173812.996764565,173813.368749847,173813.368749847,173816.568656705,3.2,173818.05880652,173818.05880652,173821.258719473,3.2,173822.646744853,173823.370818424,0.724073571473127,66,Equals to,Index,78,L,Middle
216,Spatial,3421,3,1,35,1600,3.75,5,2,r,r,0,1200,0,1600,=,L,S,0.354602702886838,0.328065802740581,1.41542324115216,1.82758929394232,1.18033247196114,173824.680118222,173825.049131127,173825.049131127,173828.249038306,3.2,173829.699124422,173829.699124422,173832.899062398,3.2,173834.880164995,173835.586861676,0.706696680921596,78,Longer,Middle,78,L,Middle
216,Spatial,3421,3,1,36,1200,2.5,5,1,l,l,-1600,-800,-1600,-400,=,L,S,0.282172273956127,0.309729008111067,1.0276118817476,1.47328808762952,1.85456679076843,173836.930252157,173837.229246782,173837.229246782,173840.429154282,3.2,173841.489396481,173841.489396481,173843.889275045,2.4,173845.496921262,173848.386916276,2.88999501473154,78,Longer,Middle,77,S,Ring
216,Spatial,3421,3,1,37,800,15,5,1,m,m,-800,400,-800,0,=,L,S,0.236362702068102,0.373727462642811,1.09581586663886,1.64336380180828,1.57406276649508,173850.396994918,173850.649325982,173850.649325982,173851.449192868,0.8,173852.579374109,173852.579374109,173854.179250683,1.6,173855.980358063,173857.010789218,1.03043115476612,77,Shorter,Ring,78,L,Middle
216,Spatial,3421,3,1,38,800,7.5,3.33333333333333,1,m,m,-800,400,-800,0,L,S,=,0.432803143824729,0.395317798246514,1.62928710896933,1.81031940676573,1.05313365583411,173858.730377976,173859.179437435,173859.179437435,173860.77931016,1.6,173862.439562432,173862.439562432,173864.839391913,2.4,173866.797059592,173867.314872131,0.517812539910665,78,Shorter,Middle,77,=,Ring
216,Spatial,3421,3,1,39,1200,10,5,1,l,l,-1600,0,-1600,-400,L,S,=,0.436843016013481,0.347758876244529,1.71642942233499,1.42271537201616,1.80777340158818,173868.513791606,173868.969452211,173868.969452211,173870.569420214,1.6,173872.309885538,173872.309885538,173874.709722718,2.4,173876.280495946,173877.562862146,1.28236619985546,78,Shorter,Middle,78,S,Middle
216,Spatial,3421,3,1,40,400,2.5,5,2,m,m,-800,-400,-800,-400,S,=,L,0.440471760541263,0.301933507412905,1.36866149488391,1.44293026042982,1.26698784935907,173879.530481338,173879.98984785,173879.98984785,173881.589679833,1.6,173882.979805138,173882.979805138,173883.779610431,0.8,173885.363816917,NaN,NaN,78,Equals to,Middle,999,Missed,Missed
216,Spatial,3421,3,1,41,1200,3.33333333333333,7.5,1,l,l,-1600,-800,-1600,-400,S,=,L,0.313266292645094,0.320318742283075,1.11812949462477,1.1659408517824,1.80552990867996,173889.680583706,173890.010181253,173890.010181253,173892.409688007,2.4,173893.559952746,173893.559952746,173895.159855305,1.6,173896.480624329,173896.939024171,0.458399841911159,77,Longer,Ring,77,L,Ring
216,Spatial,3421,3,1,42,1200,6.66666666666667,7.5,1,l,l,-1600,0,-1600,-400,=,L,S,0.424453990138254,0.482247401920101,1.65639516416969,1.77915831816079,1.74587468949705,173898.91393648,173899.350309176,173899.350309176,173901.749810797,2.4,173903.440037219,173903.440037219,173905.040089594,1.6,173906.963955311,173907.650757446,0.68680213499465,77,Shorter,Ring,78,L,Middle
216,Spatial,3421,3,1,43,1600,5,5,2,r,r,0,1200,0,1600,L,S,=,0.24649946604858,0.232704362628312,1.79182087016915,1.10665993831934,1.08927277219085,173909.547365797,173909.810299052,173909.810299052,173912.210196863,2.4,173914.040281157,173914.040281157,173917.240167805,3.2,173918.4807477,173919.090848926,0.61010122593143,66,Longer,Index,66,L,Index
216,Spatial,3421,3,1,44,800,15,5,1,l,l,-1600,-400,-1600,-800,S,=,L,0.344971564155327,0.395405554134928,1.40905849967279,1.09588977206807,1.66323151294328,173920.330786164,173920.6902613,173920.6902613,173921.490272226,0.8,173922.920415355,173922.920415355,173924.52030797,1.6,173925.763679485,173926.314810537,0.551131052168785,66,Shorter,Index,78,=,Middle
216,Spatial,3421,3,1,45,1200,10,7.5,1,m,m,-800,0,-800,400,L,S,=,0.412080374998901,0.341557054654249,1.49986297502921,1.06099144256502,1.53498056430577,173928.11377826,173928.540425839,173928.540425839,173929.340235623,0.8,173930.860531537,173930.860531537,173932.460389184,1.6,173933.680863826,173934.218989178,0.538125352148199,66,Longer,Index,66,L,Index
216,Spatial,3421,3,1,46,800,1.66666666666667,5,1,m,m,-800,-400,-800,0,L,S,=,0.284275106772892,0.335626117403906,1.7461350906726,1.95580023164047,1.15695192457667,173935.91422456,173936.2104574,173936.2104574,173938.61047872,2.4,173940.39086306,173940.39086306,173941.990432627,1.6,173944.097555295,173944.570665016,0.473109721380752,66,Longer,Index,66,L,Index
216,Spatial,3421,3,1,47,1200,5,5,1,m,m,-800,800,-800,400,L,S,=,0.479113100430859,0.401805597161872,1.86432366414198,1.71003429236829,1.94231003285452,173945.8976115,173946.390827451,173946.390827451,173949.590749067,3.2,173951.490734226,173951.490734226,173953.890709672,2.4,173955.764338454,173956.154831954,0.390493500221055,78,Shorter,Middle,77,=,Ring
216,Spatial,3421,3,1,48,1200,5,5,1,l,l,-1600,0,-1600,-400,S,=,L,0.224180615389025,0.227156060345217,1.55384090767526,1.91453861505084,1.5046554647119,173958.264322373,173958.501128537,173958.501128537,173961.700976368,3.2,173963.281034196,173963.281034196,173965.680912438,2.4,173967.747685894,173968.266839387,0.519153492932674,66,Shorter,Index,66,S,Index
216,Spatial,3421,3,1,49,800,1.25,3.33333333333333,1,m,m,-800,-400,-800,0,=,L,S,0.419802895514308,0.278295001311795,1.91044432647046,1.5898972196121,1.34871303685973,173972.73109946,173973.161222288,173973.161222288,173976.361257788,3.2,173978.311165218,173978.311165218,173980.711016513,2.4,173982.447779504,173982.906903534,0.459124030458042,78,Longer,Middle,78,L,Middle
216,Spatial,3421,3,1,50,400,1.66666666666667,1.25,2,l,l,-1600,-1200,-1600,-1200,S,=,L,0.382227597138354,0.37075587290474,1.58720922813716,1.02190906196696,1.16251594933317,173984.414533172,173984.811342621,173984.811342621,173987.211265455,2.4,173988.831614751,173988.831614751,173992.031162311,3.2,173993.197851845,173993.826851847,0.62900000193622,78,Equals to,Middle,78,=,Middle
216,Spatial,3421,3,1,51,800,5,5,1,r,r,0,1200,0,800,=,L,S,0.329282246756008,0.229940268393823,1.32602340625434,1.60338600271031,1.61530134632402,173995.147891079,173995.491666798,173995.491666798,173997.891549532,2.4,173999.251751695,173999.251751695,174000.851324149,1.6,174002.597923576,174003.21896576,0.621042183571262,77,Shorter,Ring,66,=,Index
216,Spatial,3421,3,1,52,400,3.33333333333333,1.25,2,r,r,0,800,0,400,L,S,=,0.248693275951761,0.285983823858323,1.06415639176922,1.34477074316814,1.10954407108209,174004.998006856,174005.261421635,174005.261421635,174007.661497492,2.4,174008.761658387,174008.761658387,174011.961735912,3.2,174013.464645998,174014.042733735,0.578087736823363,78,Shorter,Middle,66,L,Index
216,Spatial,3421,3,1,53,800,7.5,3.33333333333333,1,l,l,-1600,-400,-1600,-800,=,L,S,0.316604135521212,0.264541344636688,1.6291431013303,1.92232345480154,1.23365654094569,174015.298046025,174015.631863758,174015.631863758,174017.231767601,1.6,174018.891956354,174018.891956354,174021.291801554,2.4,174023.364774377,174023.899108683,0.534334306197707,77,Shorter,Ring,78,L,Middle
216,Spatial,3421,3,1,54,1200,2.5,5,1,r,r,0,800,0,1200,=,L,S,0.437726278629889,0.312330465000721,1.52367936395621,1.5279187864045,1.05369544274024,174025.281478551,174025.731878322,174025.731878322,174028.931738344,3.2,174030.492021926,174030.492021926,174032.891828309,2.4,174034.581460651,174035.179012096,0.597551445447607,78,Longer,Middle,66,=,Index
216,Spatial,3421,3,1,55,800,3.75,3.33333333333333,1,l,l,-1600,-400,-1600,-800,=,L,S,0.236616473650227,0.406051803443449,1.76084970048082,1.43895979161773,1.39414589493083,174036.381552095,174036.63222851,174036.63222851,174039.832106175,3.2,174041.622334971,174041.622334971,174044.022229254,2.4,174045.598259146,174045.994765471,0.396506324934307,77,Shorter,Ring,77,S,Ring
216,Spatial,3421,3,1,56,1200,20,7.5,1,m,m,-800,800,-800,400,L,S,=,0.26183483702963,0.364121146425519,1.49001179037429,1.48898088429878,1.99347200203248,174047.531607033,174047.812250171,174047.812250171,174048.612208485,0.8,174050.132173011,174050.132173011,174051.732177907,1.6,174053.36492593,174053.842961248,0.478035317762988,78,Shorter,Middle,77,=,Ring
216,Spatial,3421,3,1,57,1600,7.5,20,2,l,l,-1600,-400,-1600,0,=,L,S,0.294848458924573,0.277550736533806,1.6204395522425,1.13361637897433,1.14649417553606,174055.981668081,174056.292358191,174056.292358191,174057.892228029,1.6,174059.552494416,174059.552494416,174060.352484491,0.8,174061.631692185,174063.258984866,1.62729268160183,78,Longer,Middle,77,S,Ring
216,Spatial,3421,3,1,58,400,5,5,2,m,m,-800,0,-800,-400,S,=,L,0.480522546177377,0.298745574764757,1.56045781137863,1.2513894867247,1.17865362843106,174064.548380494,174065.042671134,174065.042671134,174066.642519478,1.6,174068.24276314,174068.24276314,174069.042598587,0.8,174070.448388065,174071.050987333,0.602599267411279,66,Shorter,Index,66,S,Index
216,Spatial,3421,3,1,59,1600,6.66666666666667,5,2,m,m,-800,800,-800,800,L,S,=,0.496218058779089,0.389013120606028,1.67232680526635,1.30970075735631,1.26167754140589,174072.381771893,174072.892809367,174072.892809367,174075.292711349,2.4,174077.00286953,174077.00286953,174080.20272089,3.2,174081.648491535,174082.050842009,0.402350474876584,77,Equals to,Ring,77,=,Ring
216,Spatial,3421,3,1,60,1600,6.66666666666667,5,2,m,m,-800,800,-800,800,L,S,=,0.265035493133579,0.262109710031977,1.30243675692435,1.41844459966602,1.91893299165174,174083.465172434,174083.742929636,174083.742929636,174086.142864661,2.4,174087.482643917,174087.482643917,174090.682732028,3.2,174092.248508751,174092.93895969,0.690450938767754,77,Equals to,Ring,77,=,Ring
216,Spatial,3421,3,1,61,1200,5,5,1,m,m,-800,800,-800,400,S,=,L,0.457239114723039,0.227731217136043,1.13171766419191,1.50694201797134,1.87874713184879,174095.015253501,174095.482995195,174095.482995195,174098.682863878,3.2,174099.843185123,174099.843185123,174102.243092238,2.4,174103.898568773,174104.595011334,0.696442560700234,66,Shorter,Index,78,=,Middle
216,Spatial,3421,3,1,62,800,15,5,1,l,l,-1600,-400,-1600,-800,L,S,=,0.343393713815973,0.488598841356003,1.93089366337505,1.99816544256692,1.99795839718378,174106.615325131,174106.973172875,174106.973172875,174107.772959881,0.8,174109.723341777,174109.723341777,174111.323170873,1.6,174113.465305246,174114.002891711,0.537586464197375,78,Shorter,Middle,78,S,Middle
216,Spatial,3421,3,1,63,1200,6.66666666666667,7.5,1,r,r,0,1600,0,1200,=,L,S,0.432152429551648,0.477707591441836,1.17333959269518,1.98387351730658,1.32769919877807,174116.165342075,174116.613258837,174116.613258837,174119.013144779,2.4,174120.223470098,174120.223470098,174121.823337369,1.6,174123.948757126,174124.41086127,0.462104144447949,77,Shorter,Ring,66,=,Index
216,Spatial,3421,3,1,64,1200,20,7.5,1,l,l,-1600,0,-1600,-400,S,=,L,0.448490000597867,0.217165717230219,1.01093012886959,1.00476189294806,1.89776236147864,174125.88212253,174126.343353544,174126.343353544,174127.143225242,0.8,174128.19357294,174128.19357294,174129.7935156,1.6,174130.948750251,174131.490947284,0.542197032831609,66,Shorter,Index,66,S,Index
216,Spatial,3421,3,1,65,800,5,5,1,l,l,-1600,-400,-1600,-800,=,L,S,0.480139782975342,0.277519350553856,1.37033511656228,1.66093838172407,1.42534152081872,174133.548786951,174134.043642202,174134.043642202,174136.443514028,2.4,174137.853454,174137.853454,174139.453433873,1.6,174141.265533587,174141.74683673,0.481303142820252,77,Shorter,Ring,77,S,Ring
216,Spatial,3421,3,1,66,1200,3.33333333333333,7.5,1,m,m,-800,0,-800,400,=,L,S,0.477816156654119,0.472800378572645,1.40335075305384,1.85249771518712,1.6576733021789,174143.315606768,174143.813685439,174143.813685439,174146.213596083,2.4,174147.65377647,174147.65377647,174149.253627381,1.6,174151.248873182,174151.634987453,0.38611427100841,78,Longer,Middle,78,L,Middle
216,Spatial,3421,3,1,67,1200,5,5,1,r,r,0,800,0,1200,S,=,L,0.293788770558397,0.432001944403492,1.03453019401663,1.32458809297728,1.56466104555127,174153.432298185,174153.744029346,174153.744029346,174155.343608537,1.6,174156.413957608,174156.413957608,174158.813849966,2.4,174160.282326618,174160.706973212,0.424646594241494,77,Longer,Ring,78,=,Middle
216,Spatial,3421,3,1,68,800,3.75,3.33333333333333,1,l,l,-1600,-400,-1600,-800,L,S,=,0.205825324228056,0.371644765885542,1.57379549630619,1.81907873976026,1.37005838172335,174162.432358544,174162.654111708,174162.654111708,174165.854025624,3.2,174167.454027402,174167.454027402,174169.853967238,2.4,174171.81567125,174172.491030051,0.675358801177936,78,Shorter,Middle,66,L,Index
216,Spatial,3421,3,1,69,1600,20,20,2,r,r,0,1600,0,1600,L,S,=,0.476309322546557,0.439902145470244,1.47158507410956,1.47948387709236,1.46913039612436,174174.015720268,174174.504103336,174174.504103336,174175.3039375,0.8,174176.804365495,174176.804365495,174177.604239118,0.8,174179.231966588,174179.642934044,0.410967455914943,77,Equals to,Ring,77,=,Ring
216,Spatial,3421,3,1,70,1600,5,5,2,m,m,-800,800,-800,800,S,=,L,0.322474226158911,0.362295968022727,1.61703049387559,1.71805759995458,1.40154780294411,174181.265808008,174181.604437419,174181.604437419,174184.804021229,3.2,174186.444330515,174186.444330515,174189.644360561,3.2,174191.515799186,174191.995006394,0.479207208030857,78,Equals to,Middle,78,=,Middle
216,Spatial,3421,3,1,71,1600,5,5,2,r,r,0,1200,0,1600,L,S,=,0.228331144221555,0.284043583787037,1.05657172068914,1.53624046017087,1.0461566057975,174193.549218109,174193.794318292,174193.794318292,174196.194273207,2.4,174197.284547621,174197.284547621,174200.484440043,3.2,174202.165940382,174202.619017601,0.45307721933932,66,Longer,Index,66,L,Index
216,Spatial,3421,3,1,72,800,2.5,3.33333333333333,1,l,l,-1600,-1200,-1600,-800,S,=,L,0.467532658373777,0.487206797325335,1.68670970954899,1.26947968373642,1.16083613416513,174203.815909926,174204.294561781,174204.294561781,174205.894414295,1.6,174207.614829163,174207.614829163,174210.014393661,2.4,174211.432595937,174212.082969062,0.650373124983162,77,Longer,Ring,77,L,Ring
216,Spatial,3421,3,1,73,400,2.5,1.25,2,m,m,-800,0,-800,-400,=,L,S,0.350302138545294,0.482009974105889,1.03519473285226,1.74335735170895,1.28156068301392,174216.816042418,174217.184793548,174217.184793548,174220.384628867,3.2,174221.444731838,174221.444731838,174224.644755148,3.2,174226.549402249,174226.938948783,0.389546533318935,77,Shorter,Ring,77,S,Ring
216,Spatial,3421,3,1,74,800,5,5,1,r,r,0,1200,0,800,=,L,S,0.337224965923388,0.259330704585147,1.02070139870916,1.27180911726725,1.54702652798907,174228.382739753,174228.734770675,174228.734770675,174231.134788787,2.4,174232.185013618,174232.185013618,174233.784854263,1.6,174235.199452968,174235.722997601,0.52354463285883,77,Shorter,Ring,66,=,Index
216,Spatial,3421,3,1,75,800,1.25,3.33333333333333,1,m,m,-800,-400,-800,0,S,=,L,0.48040604555213,0.281046124256032,1.31859362133566,1.22552870184606,1.87375702235543,174237.432844093,174237.925056721,174237.925056721,174241.124906156,3.2,174242.465245212,174242.465245212,174244.865112226,2.4,174246.23288804,174246.699139544,0.466251504636602,77,Longer,Ring,77,L,Ring
216,Spatial,3421,3,1,76,800,2.5,3.33333333333333,1,m,m,-800,-400,-800,0,L,S,=,0.351873871175653,0.251455530829061,1.43255361929955,1.64912258855364,1.29101293865118,174248.71623445,174249.085171645,174249.085171645,174250.685090566,1.6,174252.145296386,174252.145296386,174254.545192594,2.4,174256.349547637,174256.810955458,0.461407821043395,66,Longer,Index,66,L,Index
216,Spatial,3421,3,1,77,400,2.5,1.25,2,m,m,-800,0,-800,-400,=,L,S,0.324015124021702,0.387777827946156,1.91273691325089,1.86571960138633,1.99365169435099,174258.266255206,174258.605243916,174258.605243916,174261.805263055,3.2,174263.745512414,174263.745512414,174266.945497548,3.2,174268.966317056,174269.475125001,0.50880794407567,77,Shorter,Ring,77,S,Ring
216,Spatial,3421,3,1,78,800,1.66666666666667,5,1,r,r,0,400,0,800,=,L,S,0.469577169799277,0.278482347071449,1.0002533744727,1.70822378991582,1.26917628958213,174271.633010991,174272.115516321,174272.115516321,174274.515450705,2.4,174275.545689882,174275.545689882,174277.145500371,1.6,174278.999726356,174279.435054244,0.435327888699248,78,Longer,Middle,66,=,Index
216,Spatial,3421,3,1,79,800,15,5,1,m,m,-800,400,-800,0,S,=,L,0.482945675644334,0.489524901833056,1.1494000531576,1.19493104957784,1.40306528245944,174280.849779898,174281.345741916,174281.345741916,174282.145646336,0.8,174283.335916387,174283.335916387,174284.935787508,1.6,174286.283144488,174286.659027405,0.375882916530827,66,Shorter,Index,78,=,Middle
216,Spatial,3421,3,1,80,400,5,5,2,m,m,-800,-400,-800,-400,S,=,L,0.208805647931738,0.303465911956119,1.92545882925303,1.21083204083017,1.79972201254794,174288.216448104,174288.435915553,174288.435915553,174289.235761267,0.8,174291.185788355,174291.185788355,174291.985657487,0.8,174293.349803958,174293.72306112,0.373257162078517,78,Equals to,Middle,78,=,Middle
216,Spatial,3421,3,1,81,1200,10,7.5,1,l,l,-1600,-800,-1600,-400,L,S,=,0.463683332351829,0.465798326433323,1.84161818836076,1.18629482451754,1.27097781057625,174295.683236225,174296.166011865,174296.166011865,174296.96586239,0.8,174298.835929861,174298.835929861,174300.435830817,1.6,174301.766569905,174302.467094039,0.700524134008447,66,Longer,Index,66,L,Index
216,Spatial,3421,3,1,82,1200,5,5,1,r,r,0,1600,0,1200,S,=,L,0.414171036767017,0.357928852859893,1.3518584937589,1.52798694261524,1.67292747699848,174303.883273919,174304.316261802,174304.316261802,174307.516141712,3.2,174308.896383424,174308.896383424,174311.295964604,2.4,174312.983305135,174313.475057953,0.491752818110399,66,Shorter,Index,77,L,Ring
216,Spatial,3421,3,1,83,1200,6.66666666666667,7.5,1,l,l,-1600,0,-1600,-400,=,L,S,0.452792545021593,0.481163796550953,1.17942850183538,1.03529153072385,1.2956214137681,174315.299999423,174315.766232384,174315.766232384,174318.166279689,2.4,174319.376360878,174319.376360878,174320.976168159,1.6,174322.150032474,174322.643037984,0.493005509459181,77,Shorter,Ring,66,=,Index
216,Spatial,3421,3,1,84,400,5,5,2,r,r,0,400,0,400,L,S,=,0.292730708188722,0.480936803622311,1.45314888810049,1.82654723689201,1.47958006132224,174324.083388672,174324.396408447,174324.396408447,174325.196285278,0.8,174326.686479363,174326.686479363,174327.486375442,0.8,174329.449998492,174329.907099865,0.45710137282731,77,Equals to,Ring,77,=,Ring
216,Spatial,3421,3,1,85,1600,7.5,20,2,l,l,-1600,-400,-1600,0,L,S,=,0.236650592068915,0.371791449841852,1.55322117553089,1.01130661588745,1.97469973383202,174331.533393871,174331.786611341,174331.786611341,174333.386502993,1.6,174334.966677593,174334.966677593,174335.766510795,0.8,174336.933474995,174338.546987251,1.61351225557155,66,Longer,Index,78,S,Middle
216,Spatial,3421,3,1,86,1200,2.5,5,1,m,m,-800,0,-800,400,=,L,S,0.303514635541656,0.305296489046864,1.75729179373125,1.83249866108887,1.58471783447825,174340.666833484,174340.986538776,174340.986538776,174344.186498566,3.2,174345.976640104,174345.976640104,174348.376613304,2.4,174350.366858121,174350.891008429,0.524150307377568,78,Longer,Middle,66,=,Index
216,Spatial,3421,3,1,87,1200,3.33333333333333,7.5,1,l,l,-1600,-800,-1600,-400,S,=,L,0.387738198923555,0.38680297946093,1.07442462953065,1.41455371682188,1.97174784216748,174352.633582019,174353.036925888,174353.036925888,174355.436741253,2.4,174356.536937757,174356.536937757,174358.136846412,1.6,174359.700213911,174360.387230021,0.687016110052355,77,Longer,Ring,77,L,Ring
216,Spatial,3421,3,1,88,1200,10,7.5,1,l,l,-1600,-800,-1600,-400,S,=,L,0.376497151445958,0.401116486305235,1.22421604097048,1.11384976975415,1.91242292600427,174362.500311081,174362.897028557,174362.897028557,174363.696840586,0.8,174364.957143995,174364.957143995,174366.556679557,1.6,174367.81695895,174368.667245715,0.85028676505317,77,Longer,Ring,77,L,Ring
216,Spatial,3421,3,1,89,1600,15,20,2,m,m,-800,400,-800,800,L,S,=,0.274665185070954,0.207396069338574,1.96505885520946,1.19471589580121,1.86693154476159,174370.717037097,174371.007030014,174371.007030014,174371.80686482,0.8,174373.797055697,174373.797055697,174374.596897882,0.8,174375.950391855,174376.426992486,0.476600630790927,66,Longer,Index,77,=,Ring
216,Spatial,3421,3,1,90,1200,5,5,1,r,r,0,800,0,1200,=,L,S,0.235388636248626,0.231613388439105,1.17225070452494,1.21810745464693,1.13109696054945,174378.450397249,174378.697110105,174378.697110105,174380.29696262,1.6,174381.507123367,174381.507123367,174383.907014763,2.4,174385.267043738,174385.707123669,0.440079931082437,78,Longer,Middle,78,L,Middle
216,Spatial,3421,3,1,91,800,1.66666666666667,5,1,m,m,-800,-400,-800,0,S,=,L,0.228715347050747,0.202010996093566,1.77798421399483,1.54632865064071,1.19182140355669,174387.000425063,174387.247414771,174387.247414771,174389.647316111,2.4,174391.457361499,174391.457361499,174393.057147286,1.6,174394.7505063,174395.131085216,0.38057891553035,77,Longer,Ring,77,L,Ring
216,Spatial,3421,3,1,92,800,7.5,3.33333333333333,1,m,m,-800,400,-800,0,L,S,=,0.270342431811186,0.362729125939177,1.15357870993058,1.08603177588323,1.89492401219113,174396.467182581,174396.757506565,174396.757506565,174398.357300052,1.6,174399.537426981,174399.537426981,174401.937513103,2.4,174403.167161344,174403.779094991,0.611933647858677,78,Shorter,Middle,78,S,Middle
216,Spatial,3421,3,1,93,800,7.5,3.33333333333333,1,r,r,0,1200,0,800,S,=,L,0.312644009942168,0.336705530855131,1.78224311115476,1.58235856592671,1.02714490060248,174405.833870356,174406.157637324,174406.157637324,174407.757513578,1.6,174409.567530093,174409.567530093,174411.967559433,2.4,174413.700624773,174414.171128704,0.470503931224812,66,Shorter,Index,77,L,Ring
216,Spatial,3421,3,1,94,800,5,5,1,r,r,0,400,0,800,=,L,S,0.286049155863918,0.49677868815739,1.91328311284227,1.29380459213807,1.29659230427832,174415.333979429,174415.637927881,174415.637927881,174416.437432582,0.8,174418.377646974,174418.377646974,174419.977504942,1.6,174421.433939457,174421.939064271,0.505124814488227,78,Longer,Middle,66,=,Index
216,Spatial,3421,3,1,95,1200,20,7.5,1,r,r,0,1600,0,1200,L,S,=,0.432171789682397,0.398151303633055,1.50014403906689,1.67692761863244,1.038685042828,174423.400656875,174423.847792163,174423.847792163,174424.647562808,0.8,174426.177805514,174426.177805514,174427.777754911,1.6,174429.617400079,174430.475075597,0.857675517676398,78,Shorter,Middle,77,=,Ring
216,Spatial,3421,3,1,96,1200,3.33333333333333,7.5,1,l,l,-1600,-800,-1600,-400,=,L,S,0.29938927420376,0.426052141174582,1.4605715182058,1.46684815639821,1.06653278986833,174431.667420873,174431.977936466,174431.977936466,174434.377787761,2.4,174435.87796521,174435.87796521,174437.477832802,1.6,174439.100722896,174439.635199183,0.534476287255529,78,Longer,Middle,66,=,Index
