Subject,Task,SequenceOrder,ListNo,RunNo,TrialNo,Aud_Probe_Dist,Aud_Standard_Vel,Aud_Probe_Vel,Main_Control,Aud_Std_StartCode,Aud_Probe_StartCode,Aud_Std_StartPt,Aud_Std_EndPt,Aud_Probe_StartPt,Aud_Probe_EndPt,RespIndex,RespMiddle,RespRing,ISI_Cross_Std,ISI_Cross_Probe,ISI_Std_Probe,ISI_Probe_Response,ITI,TrialOnset,StdOnset,StdOnsetByStop,StdOffset,StdDur,ProbeOnset,ProbeOnsetByStop,ProbeOffset,ProbeDur,RespWinStart,RespTime,RT,CorrectKC,CorrectResponse,CorrectFinger,SubjRespKC,SubjResponse,SubjRespFinger
216,Temporal,3421,4,2,1,1600,7.5,20,2,r,r,0,1200,0,1600,S,=,L,0.24251720246429,0.232206550064626,1.52601470948125,1.16718827720454,1.57438148292253,174474.667625224,174474.921224418,174474.921224418,174476.521363409,1.6,174478.071735168,174478.071735168,174478.871625793,0.8,174480.184351318,174480.811138315,0.626786997454474,66,Shorter,Index,66,S,Index
216,Temporal,3421,4,2,2,1600,5,5,2,r,r,0,1600,0,1600,=,L,S,0.250844737664572,0.45477151785655,1.34145037812299,1.91388478323907,1.54998683748579,174482.551052456,174482.821930376,174482.821930376,174486.021527339,3.2,174487.391957637,174487.391957637,174490.591836586,3.2,174492.651064774,174493.211157114,0.560092339670518,66,Equals to,Index,66,=,Index
216,Temporal,3421,4,2,3,1200,10,7.5,1,r,r,0,800,0,1200,S,=,L,0.394367380024583,0.387300500717131,1.28266672378225,1.1688495977079,1.39385942316147,174494.91779958,174495.331910852,174495.331910852,174496.131739883,0.8,174497.452108042,174497.452108042,174499.05165002,1.6,174500.367785881,174501.603332942,1.2355470606999,77,Longer,Ring,77,L,Ring
216,Temporal,3421,4,2,4,1200,2.5,5,1,l,l,-1600,-800,-1600,-400,S,=,L,0.425838734109369,0.361655070514553,1.28838336865564,1.19992916689573,1.1353236169853,174503.151164223,174503.592045794,174503.592045794,174506.792066537,3.2,174508.102260455,174508.102260455,174510.502088653,2.4,174511.851189823,174512.299010069,0.447820245579351,66,Shorter,Index,78,=,Middle
216,Temporal,3421,4,2,5,800,5,5,1,r,r,0,1200,0,800,=,L,S,0.433519247794812,0.246663603632881,1.47604883666331,1.93488207953327,1.02442757895118,174513.584609324,174514.032224853,174514.032224853,174516.432123306,2.4,174517.94202523,174517.94202523,174519.542024351,1.6,174521.617917571,174522.267034755,0.649117184540955,77,Shorter,Ring,66,=,Index
216,Temporal,3421,4,2,6,800,3.75,3.33333333333333,1,m,m,-800,400,-800,0,=,L,S,0.344605499950988,0.222450322076326,1.38764811108439,1.83825834338121,1.25934952594787,174523.451291004,174523.812504246,174523.812504246,174527.012063675,3.2,174528.44255295,174528.44255295,174530.842395263,2.4,174532.818018559,174533.419159139,0.601140579994535,77,Shorter,Ring,66,=,Index
216,Temporal,3421,4,2,7,800,7.5,3.33333333333333,1,l,l,-1600,-400,-1600,-800,L,S,=,0.212328394059935,0.401945738539686,1.21833818888655,1.90276496425763,1.92858311273525,174534.818073416,174535.042419625,174535.042419625,174536.642318976,1.6,174537.88246061,174537.88246061,174540.282367084,2.4,174542.334760582,174542.803250111,0.468489528691862,66,Longer,Index,66,L,Index
216,Temporal,3421,4,2,8,800,15,5,1,m,m,-800,400,-800,0,=,L,S,0.335009769541027,0.221231923366183,1.23486181015917,1.42509444332398,1.65944252168773,174544.8681954,174545.222788072,174545.222788072,174546.022640202,0.8,174547.282697555,174547.282697555,174548.882599473,1.6,174550.451440177,174551.795161726,1.34372154885205,78,Longer,Middle,78,L,Middle
216,Temporal,3421,4,2,9,800,5,5,1,l,l,-1600,-1200,-1600,-800,L,S,=,0.288626568042395,0.308434097564944,1.91635753254984,1.99831355765879,1.30435274838434,174553.601528751,174553.902525502,174553.902525502,174554.702515256,0.8,174556.652778134,174556.652778134,174558.252758328,1.6,174560.401526248,174561.155318611,0.753792362724198,66,Longer,Index,66,L,Index
216,Temporal,3421,4,2,10,800,2.5,3.33333333333333,1,m,m,-800,-400,-800,0,S,=,L,0.277917550243746,0.308456125373948,1.02553192537504,1.5626810414114,1.06157822604238,174562.601591628,174562.892959182,174562.892959182,174564.492801751,1.6,174565.542888317,174565.542888317,174567.942962249,2.4,174569.651583832,174570.155038872,0.503455039259279,77,Longer,Ring,77,L,Ring
216,Temporal,3421,4,2,11,1600,20,20,2,m,m,-800,800,-800,800,L,S,=,0.343455143155836,0.284110322781282,1.578667953748,1.83228616763113,1.4898675687368,174571.351645362,174571.713020288,174571.713020288,174572.512930804,0.8,174574.133119698,174574.133119698,174574.933085713,0.8,174576.918312542,174577.3471814,0.428868857998168,77,Equals to,Ring,77,=,Ring
216,Temporal,3421,4,2,12,1200,5,5,1,l,l,-1600,-800,-1600,-400,=,L,S,0.307997830694925,0.304928403299015,1.83986661442726,1.74442333629556,1.88150997240273,174578.985007953,174579.313352126,174579.313352126,174580.912901803,1.6,174582.793144477,174582.793144477,174585.193011813,2.4,174587.085002627,174587.531219183,0.44621655557421,78,Longer,Middle,78,L,Middle
216,Temporal,3421,4,2,13,1200,10,5,1,r,r,0,1600,0,1200,L,S,=,0.363423304086866,0.463585741829763,1.96742938627046,1.96630148277079,1.92921590424951,174589.568426459,174589.943316459,174589.943316459,174591.543146838,1.6,174593.533308202,174593.533308202,174595.933190615,2.4,174598.05174218,174598.491252367,0.439510186435655,66,Longer,Index,66,L,Index
216,Temporal,3421,4,2,14,400,3.33333333333333,1.25,2,r,r,0,800,0,400,S,=,L,0.309757247631555,0.349335818012259,1.3754207084679,1.12731299052446,1.18488238563592,174600.585124211,174600.913556926,174600.913556926,174603.313497404,2.4,174604.723353326,174604.723353326,174607.923387543,3.2,174609.201813751,174609.651281637,0.449467885453487,77,Longer,Ring,77,L,Ring
216,Temporal,3421,4,2,15,800,5,5,1,m,m,-800,400,-800,0,L,S,=,0.487049771340191,0.238188408701529,1.8170875284036,1.92826950501797,1.15723634424282,174610.985232835,174611.483692298,174611.483692298,174613.883537498,2.4,174615.733577291,174615.733577291,174617.333471188,1.6,174619.418549294,174619.963171591,0.544622297165915,78,Shorter,Middle,78,S,Middle
216,Temporal,3421,4,2,16,800,3.75,3.33333333333333,1,m,m,-800,400,-800,0,L,S,=,0.281112139009367,0.243963714829783,1.58424286327302,1.00048931645076,1.90067114540809,174621.268618013,174621.563930372,174621.563930372,174624.76382921,3.2,174626.383823057,174626.383823057,174628.783675315,2.4,174629.935282976,174630.363169859,0.427886882593157,78,Shorter,Middle,77,=,Ring
216,Temporal,3421,4,2,17,1200,2.5,5,1,m,m,-800,0,-800,400,L,S,=,0.426800603820154,0.397116614335319,1.85883967924581,1.37414935178091,1.3349465164222,174632.418701996,174632.863892902,174632.863892902,174636.0637834,3.2,174637.963995366,174637.963995366,174640.363845379,2.4,174641.885359424,174642.371248941,0.485889517032774,78,Shorter,Middle,77,=,Ring
216,Temporal,3421,4,2,18,800,1.25,3.33333333333333,1,m,m,-800,-400,-800,0,=,L,S,0.318382130229707,0.337816969314393,1.10903666683404,1.65263455469423,1.12335576272647,174643.852114375,174644.184080084,174644.184080084,174647.384053027,3.2,174648.524351085,174648.524351085,174650.924140144,2.4,174652.718796697,174653.163331607,0.444534910639049,77,Shorter,Ring,66,=,Index
216,Temporal,3421,4,2,19,1600,10,20,2,r,r,0,1600,0,1600,S,=,L,0.224997559438414,0.227105682625728,1.80073226696654,1.98470720945347,1.28594274081692,174654.435514275,174654.674183979,174654.674183979,174656.274012433,1.6,174658.104351123,174658.104351123,174658.904221859,0.8,174661.035536948,174661.579177823,0.543640874879202,66,Shorter,Index,66,S,Index
216,Temporal,3421,4,2,20,400,1.25,1.25,2,r,r,0,400,0,400,S,=,L,0.413023260195065,0.328517140629819,1.8786755564705,1.44589801326415,1.72212145260565,174663.018890756,174663.444257051,174663.444257051,174666.644152681,3.2,174668.544566433,174668.544566433,174671.744450193,3.2,174673.335557455,174673.867253029,0.531695574143669,78,Equals to,Middle,77,L,Ring
216,Temporal,3421,4,2,21,800,15,5,1,r,r,0,1200,0,800,=,L,S,0.269968876300784,0.237908495737246,1.55128310293495,1.43354088297773,1.11992563988163,174675.735636244,174676.024779676,174676.024779676,174676.824568929,0.8,174678.404606225,174678.404606225,174680.00447093,1.6,174681.585677285,174682.595242632,1.00956534754368,78,Longer,Middle,78,L,Middle
216,Temporal,3421,4,2,22,800,1.25,3.33333333333333,1,m,m,-800,-400,-800,0,S,=,L,0.242905337468308,0.410850615841033,1.38314226807377,1.11824125298575,1.77506955848652,174683.868986644,174684.124942451,174684.124942451,174687.324780979,3.2,174688.734922414,174688.734922414,174691.134820867,2.4,174692.40234686,174692.843273709,0.44092684876523,66,Shorter,Index,78,=,Middle
216,Temporal,3421,4,2,23,800,2.5,3.33333333333333,1,r,r,0,400,0,800,L,S,=,0.419738994897037,0.473014194639794,1.06037007519178,1.1376870380245,1.31802461188808,174694.769095588,174695.204984515,174695.204984515,174696.80488515,1.6,174697.894960987,174697.894960987,174700.294876443,2.4,174701.569146029,174702.059071547,0.489925518573727,66,Longer,Index,66,L,Index
216,Temporal,3421,4,2,24,400,5,5,2,l,l,-1600,-800,-1600,-1200,=,L,S,0.480108269588838,0.410951508408322,1.6667058049497,1.03439561761587,1.89098021986474,174703.535784839,174704.035233977,174704.035233977,174705.634788787,1.6,174707.334999535,174707.334999535,174708.134776276,0.8,174709.319121477,174710.267354916,0.948233438743046,77,Shorter,Ring,77,S,Ring
216,Temporal,3421,4,2,25,1600,10,20,2,l,l,-1600,0,-1600,0,S,=,L,0.422313625990564,0.281764837807115,1.34305862589016,1.93191090480606,1.01493776671584,174713.902572384,174714.34527547,174714.34527547,174715.945116756,1.6,174717.315336608,174717.315336608,174718.115224347,0.8,174720.202524007,174720.619250503,0.416726496245246,66,Shorter,Index,66,S,Index
216,Temporal,3421,4,2,26,400,10,5,2,l,l,-1600,-800,-1600,-1200,=,L,S,0.301641570719408,0.354848681778288,1.42297371827701,1.30785307809474,1.12758674237618,174721.769186336,174722.085215916,174722.085215916,174722.885055855,0.8,174724.34508748,174724.34508748,174725.145116371,0.8,174726.585897024,174727.363293689,0.777396664809203,66,Equals to,Index,66,=,Index
216,Temporal,3421,4,2,27,400,1.66666666666667,1.25,2,l,l,-1600,-1200,-1600,-1200,=,L,S,0.345628532873284,0.354391694404069,1.77995377359681,1.64161188873669,1.12724380668852,174728.652621948,174729.015292273,174729.015292273,174731.415105714,2.4,174733.235299036,174733.235299036,174736.43532812,3.2,174738.21937452,174738.547269236,0.327894715330331,78,Longer,Middle,78,L,Middle
216,Temporal,3421,4,2,28,1200,2.5,5,1,l,l,-1600,-800,-1600,-400,S,=,L,0.416082937974354,0.440401145275705,1.13115780831959,1.57120797078215,1.16838462832045,174739.836014598,174740.265602649,174740.265602649,174743.465516244,3.2,174744.635575118,174744.635575118,174747.035472288,2.4,174748.75278692,174749.163361763,0.410574842622736,66,Shorter,Index,78,=,Middle
216,Temporal,3421,4,2,29,1600,15,20,2,r,r,0,1200,0,1600,L,S,=,0.320640197186749,0.259477411368971,1.83933538743243,1.35149304316339,1.44313028555633,174750.486083282,174750.825816894,174750.825816894,174751.625716823,0.8,174753.48590455,174753.48590455,174754.285757321,0.8,174755.786152601,174756.2032009,0.417048298957525,77,Equals to,Ring,77,=,Ring
216,Temporal,3421,4,2,30,800,15,5,1,l,l,-1600,-400,-1600,-800,=,L,S,0.201958849696084,0.28258350720924,1.33537129504102,1.29353292722789,1.38274405431831,174757.786147827,174758.005957572,174758.005957572,174758.805793982,0.8,174760.165929418,174760.165929418,174761.765782254,1.6,174763.202427125,174764.371426665,1.16899953995016,78,Longer,Middle,66,=,Index
216,Temporal,3421,4,2,31,1200,6.66666666666667,7.5,1,r,r,0,1600,0,1200,=,L,S,0.290427573420571,0.4460576113123,1.01246057860041,1.85593110988104,1.04589169047268,174765.902858219,174766.206022951,174766.206022951,174768.6058396,2.4,174769.645800687,174769.645800687,174771.245818094,1.6,174773.236269518,174773.707282145,0.47101262724027,77,Shorter,Ring,66,=,Index
216,Temporal,3421,4,2,32,1200,10,7.5,1,r,r,0,800,0,1200,=,L,S,0.414049631537677,0.413976500644625,1.33042557831143,1.47334370126304,1.0736939606739,174774.902888054,174775.335988568,174775.335988568,174776.135835885,0.8,174777.496096434,174777.496096434,174779.096101009,1.6,174780.719580096,174781.13126294,0.41168284471496,78,Longer,Middle,78,L,Middle
216,Temporal,3421,4,2,33,1200,6.66666666666667,7.5,1,m,m,-800,800,-800,400,L,S,=,0.286517702480928,0.251879373616801,1.97897480245698,1.3413746749816,1.46583734038994,174782.35300011,174782.656165805,174782.656165805,174785.056062654,2.4,174787.066123375,174787.066123375,174788.66596787,1.6,174790.153041616,174790.779428305,0.626386688556522,78,Shorter,Middle,77,=,Ring
216,Temporal,3421,4,2,34,1600,5,5,2,l,l,-1600,-400,-1600,0,=,L,S,0.284934597849164,0.29440308605711,1.10048933810845,1.70938587496828,1.69384432863523,174792.403068344,174792.706297879,174792.706297879,174795.106230016,2.4,174796.236323678,174796.236323678,174799.436205514,3.2,174801.286382654,174801.715329788,0.428947133739712,78,Longer,Middle,78,L,Middle
216,Temporal,3421,4,2,35,800,1.66666666666667,5,1,l,l,-1600,-1200,-1600,-800,L,S,=,0.24431804216476,0.289840178613668,1.99111063998703,1.69894637890642,1.73990718150905,174803.553085131,174803.816675315,174803.816675315,174806.216180145,2.4,174808.246290039,174808.246290039,174809.846330864,1.6,174811.703130965,174812.323177699,0.62004673446063,78,Shorter,Middle,77,=,Ring
216,Temporal,3421,4,2,36,1600,3.75,5,2,l,l,-1600,-400,-1600,0,=,L,S,0.230375569476404,0.372120745016303,1.61832693475298,1.61657865600494,1.1455163899367,174814.203204429,174814.446814486,174814.446814486,174817.646667449,3.2,174819.306728203,174819.306728203,174822.506636986,3.2,174824.269894706,174824.795281706,0.525386999681359,66,Equals to,Index,66,=,Index
216,Temporal,3421,4,2,37,1200,3.33333333333333,7.5,1,l,l,-1600,-800,-1600,-400,L,S,=,0.282321601317659,0.328667849406807,1.44767867274762,1.21282256606617,1.92375764208025,174826.103233814,174826.396768387,174826.396768387,174828.796647913,2.4,174830.287014269,174830.287014269,174831.886847535,1.6,174833.25331571,174833.76341354,0.510097830585437,78,Shorter,Middle,77,=,Ring
216,Temporal,3421,4,2,38,400,1.66666666666667,1.25,2,r,r,0,400,0,400,=,L,S,0.241655088442539,0.260312518294617,1.27005089485961,1.34108709169438,1.32276854266281,174835.836709455,174836.096833766,174836.096833766,174838.496685382,2.4,174839.807204594,174839.807204594,174843.006794821,3.2,174844.486671633,174844.939245845,0.45257421277347,78,Longer,Middle,78,L,Middle
216,Temporal,3421,4,2,39,800,7.5,3.33333333333333,1,l,l,-1600,-400,-1600,-800,L,S,=,0.267318766273589,0.203615486400059,1.87823029206338,1.20832698546768,1.70013900860297,174846.40341866,174846.687147915,174846.687147915,174848.287035717,1.6,174850.19731221,174850.19731221,174852.597128538,2.4,174853.953448409,174854.619367596,0.665919187187683,66,Longer,Index,66,L,Index
216,Temporal,3421,4,2,40,1200,5,5,1,m,m,-800,0,-800,400,=,L,S,0.471006647418327,0.211335430935481,1.53643359229682,1.59400601964293,1.82690674505544,174856.470105409,174856.957299584,174856.957299584,174858.55716493,1.6,174860.117517165,174860.117517165,174862.517350816,2.4,174864.2701321,174864.987345959,0.717213858908508,78,Longer,Middle,78,L,Middle
216,Temporal,3421,4,2,41,1200,6.66666666666667,7.5,1,r,r,0,1600,0,1200,L,S,=,0.286174493659239,0.41804467600344,1.49460631854862,1.17764046977354,1.80819240273919,174866.953513059,174867.257571688,174867.257571688,174869.657456026,2.4,174871.177474126,174871.177474126,174872.777312846,1.6,174874.103366626,174874.563270527,0.459903900482459,78,Shorter,Middle,77,=,Ring
216,Temporal,3421,4,2,42,800,5,5,1,m,m,-800,-400,-800,0,S,=,L,0.215635954554325,0.254814357564512,1.82570597899625,1.57653089180242,1.33176251520749,174876.520264431,174876.747465778,174876.747465778,174877.547459702,0.8,174879.407668923,174879.407668923,174881.007524325,1.6,174882.73692266,174883.563410396,0.826487736048875,77,Longer,Ring,77,L,Ring
216,Temporal,3421,4,2,43,800,1.66666666666667,5,1,m,m,-800,-400,-800,0,=,L,S,0.376042217449135,0.243550497115761,1.55534429979479,1.43785346332158,1.0737492785963,174885.053609249,174885.447742887,174885.447742887,174887.847414213,2.4,174889.437787434,174889.437787434,174891.037672029,1.6,174892.620365447,174893.163150996,0.54278554872144,77,Shorter,Ring,77,S,Ring
216,Temporal,3421,4,2,44,1200,10,7.5,1,l,l,-1600,-800,-1600,-400,S,=,L,0.351420216494338,0.378900378357763,1.39593486445295,1.25012334413397,1.10914748355922,174894.387003535,174894.757607939,174894.757607939,174895.557591276,0.8,174896.977895403,174896.977895403,174898.577758504,1.6,174899.970355635,174900.467359984,0.497004349424969,77,Longer,Ring,77,L,Ring
216,Temporal,3421,4,2,45,1200,5,5,1,m,m,-800,0,-800,400,=,L,S,0.483160039464308,0.408695240603473,1.4608941487647,1.85457979368807,1.8692342801044,174901.72043275,174902.217875629,174902.217875629,174903.817684514,1.6,174905.317690013,174905.317690013,174907.717740205,2.4,174909.720438241,174910.14723183,0.42679358884925,78,Longer,Middle,78,L,Middle
216,Temporal,3421,4,2,46,400,3.33333333333333,1.25,2,l,l,-1600,-800,-1600,-1200,=,L,S,0.422802717321639,0.323600383257847,1.45146200941352,1.67213705761327,1.45200233031732,174912.170492874,174912.608151666,174912.608151666,174915.008041137,2.4,174916.488275599,174916.488275599,174919.688132733,3.2,174921.503853155,174921.915263638,0.411410483677173,78,Longer,Middle,78,L,Middle
216,Temporal,3421,4,2,47,800,1.25,3.33333333333333,1,m,m,-800,-400,-800,0,S,=,L,0.238472305352568,0.270770803277733,1.62177961000539,1.93113994660649,1.56567103163022,174923.520571759,174923.778066776,174923.778066776,174926.978046135,3.2,174928.628280398,174928.628280398,174931.02817436,2.4,174933.103947143,174933.57927278,0.475325637147762,66,Shorter,Index,66,S,Index
216,Temporal,3421,4,2,48,800,5,5,1,l,l,-1600,-400,-1600,-800,=,L,S,0.389823961480592,0.222681048288739,1.08634222300765,1.36334323754194,1.56227487287284,174935.303934703,174935.708195745,174935.708195745,174938.108194609,2.4,174939.218426767,174939.218426767,174940.818276715,1.6,174942.337289466,174942.819387422,0.482097956293728,77,Shorter,Ring,66,=,Index
216,Temporal,3421,4,2,49,1200,5,5,1,l,l,-1600,-800,-1600,-400,L,S,=,0.258360807510906,0.39226092775411,1.48916959838864,1.46176155280233,1.07319711253019,174948.8373594,174949.108811236,174949.108811236,174950.708364442,1.6,174952.228402431,174952.228402431,174954.628398087,2.4,174956.237374029,174956.763384989,0.526010959903942,66,Longer,Index,66,L,Index
216,Temporal,3421,4,2,50,1200,3.33333333333333,7.5,1,m,m,-800,0,-800,400,L,S,=,0.391430371286474,0.367411809173808,1.75715568386937,1.38034637228831,1.76789491770019,174957.987460806,174958.398896909,174958.398896909,174960.798708104,2.4,174962.588883647,174962.588883647,174964.188786207,1.6,174965.720804277,174966.139536749,0.418732472171541,78,Shorter,Middle,78,S,Middle
216,Temporal,3421,4,2,51,800,5,5,1,l,l,-1600,-1200,-1600,-800,S,=,L,0.363915123968151,0.256581885869378,1.26737897567258,1.87483939665195,1.50452661230542,174968.054147555,174968.429090487,174968.429090487,174969.228873003,0.8,174970.518855102,174970.518855102,174972.118737451,1.6,174974.137555757,174974.611311292,0.473755534272641,77,Longer,Ring,77,L,Ring
216,Temporal,3421,4,2,52,400,10,5,2,r,r,0,800,0,400,S,=,L,0.423690479542667,0.455765218077568,1.18229514263107,1.16335599044011,1.08124867015615,174976.270865454,174976.708915945,174976.708915945,174977.508748827,0.8,174978.719050727,174978.719050727,174979.518881363,0.8,174980.837559581,174981.347396338,0.509836756624281,78,Equals to,Middle,78,=,Middle
216,Temporal,3421,4,2,53,1200,10,7.5,1,r,r,0,800,0,1200,L,S,=,0.212908669139751,0.348605036528411,1.31794713090216,1.87554835203087,1.33745021637072,174982.587567441,174982.81888083,174982.81888083,174983.618920308,0.8,174984.969052812,174984.969052812,174986.569045838,1.6,174988.587575781,174989.035418483,0.447842701716581,66,Longer,Index,66,L,Index
216,Temporal,3421,4,2,54,1600,7.5,20,2,m,m,-800,400,-800,800,=,L,S,0.328565046252523,0.36359829007217,1.22655574652833,1.55577881621905,1.33820353958837,174990.520993293,174990.869147642,174990.869147642,174992.469017479,1.6,174993.729416487,174993.729416487,174994.528986631,0.8,174996.220969811,174997.947383313,1.72641350244521,77,Shorter,Ring,66,=,Index
216,Temporal,3421,4,2,55,1600,6.66666666666667,5,2,m,m,-800,800,-800,800,S,=,L,0.302524067315327,0.37851256987087,1.306228720237,1.7351386330448,1.9839242134789,174999.437722356,174999.759414055,174999.759414055,175002.159254443,2.4,175003.48931211,175003.48931211,175006.689292112,3.2,175008.571106995,175009.003427129,0.432320134306792,77,Longer,Ring,77,L,Ring
216,Temporal,3421,4,2,56,800,1.25,3.33333333333333,1,m,m,-800,-400,-800,0,=,L,S,0.347466288679658,0.253312257437085,1.65262643760386,1.06569335075047,1.10788582099522,175011.137781961,175011.499463895,175011.499463895,175014.699344768,3.2,175016.389593326,175016.389593326,175018.789512631,2.4,175020.00402735,175020.939435119,0.935407768411096,77,Shorter,Ring,66,=,Index
216,Temporal,3421,4,2,57,1600,3.75,5,2,m,m,-800,400,-800,800,S,=,L,0.46330906536512,0.415082472150708,1.22068707225638,1.26425800792066,1.31208201591359,175022.204509131,175022.679792884,175022.679792884,175025.879653547,3.2,175027.11974289,175027.11974289,175030.319821698,3.2,175031.737915952,175032.355379499,0.617463546979707,78,Equals to,Middle,78,=,Middle
216,Temporal,3421,4,2,58,1600,5,5,2,m,m,-800,400,-800,800,L,S,=,0.378033729502245,0.278549203920268,1.73481667146103,1.30696454901354,1.18338658905118,175033.821228505,175034.2096416,175034.2096416,175036.609606138,2.4,175038.370132183,175038.370132183,175041.569699633,3.2,175043.021262446,175043.571214871,0.549952425033553,66,Longer,Index,77,=,Ring
216,Temporal,3421,4,2,59,1600,6.66666666666667,5,2,l,l,-1600,0,-1600,0,S,=,L,0.348878095057324,0.252071278225934,1.03365514952789,1.4156714254428,1.19534906397065,175044.904654711,175045.270021699,175045.270021699,175047.669918869,2.4,175048.740214366,175048.740214366,175051.940099089,3.2,175053.504724289,175054.027448474,0.522724185691914,77,Longer,Ring,77,L,Ring
216,Temporal,3421,4,2,60,800,1.66666666666667,5,1,m,m,-800,-400,-800,0,S,=,L,0.236551325960937,0.464504899826974,1.35723958773655,1.17323084140521,1.78035751662494,175055.388045179,175055.640129546,175055.640129546,175058.040004902,2.4,175059.42995922,175059.42995922,175061.030011915,1.6,175062.338062278,175063.347400829,1.00933855085168,66,Shorter,Index,78,=,Middle
216,Temporal,3421,4,2,61,400,2.5,1.25,2,r,r,0,800,0,400,=,L,S,0.446448091502497,0.341239697896229,1.15802290288416,1.52094226107914,1.88954580025421,175065.28814413,175065.750344015,175065.750344015,175068.95035321,3.2,175070.140373677,175070.140373677,175073.340375813,3.2,175075.004797917,175076.243304378,1.23850646064966,66,Equals to,Index,66,=,Index
216,Temporal,3421,4,2,62,1200,5,5,1,m,m,-800,800,-800,400,S,=,L,0.43371120850807,0.298864929537683,1.72431956905328,1.14269061932317,1.7801894636861,175078.28823272,175078.740481915,175078.740481915,175081.940521907,3.2,175083.690609049,175083.690609049,175086.090333628,2.4,175087.371549532,175088.059622044,0.688072511547944,66,Shorter,Index,66,S,Index
216,Temporal,3421,4,2,63,400,5,5,2,m,m,-800,0,-800,-400,=,L,S,0.356204061517859,0.42853060287329,1.76617992224538,1.36270438856063,1.72131233353449,175090.004929125,175090.380897341,175090.380897341,175091.980393124,1.6,175093.770856426,175093.770856426,175094.570680967,0.8,175096.088335549,175096.643313553,0.554978004103759,77,Shorter,Ring,77,S,Ring
216,Temporal,3421,4,2,64,800,5,5,1,l,l,-1600,-400,-1600,-800,L,S,=,0.374369604625213,0.420690180881483,1.5656827883502,1.04405860097422,1.00918734502951,175098.521681093,175098.910747982,175098.910747982,175101.310574576,2.4,175102.900699817,175102.900699817,175104.500614888,1.6,175105.705013111,175106.275518047,0.570504936185898,78,Shorter,Middle,78,S,Middle
216,Temporal,3421,4,2,65,800,7.5,3.33333333333333,1,l,l,-1600,-400,-1600,-800,=,L,S,0.408937316047602,0.471106825603045,1.96198791426535,1.92440963793914,1.22219789517464,175107.421740634,175107.840849362,175107.840849362,175109.440857787,1.6,175111.430952102,175111.430952102,175113.830992992,2.4,175115.888460162,175116.299506991,0.41104682922014,78,Longer,Middle,78,L,Middle
216,Temporal,3421,4,2,66,800,3.75,3.33333333333333,1,r,r,0,1200,0,800,L,S,=,0.402128102316123,0.285853425793571,1.21685418494253,1.231450598892,1.41392679750567,175117.671813296,175118.090995488,175118.090995488,175121.290957845,3.2,175122.541417759,175122.541417759,175124.940949215,2.4,175126.321792155,175126.747417382,0.42562522739172,78,Shorter,Middle,77,=,Ring
216,Temporal,3421,4,2,67,800,2.5,3.33333333333333,1,l,l,-1600,-1200,-1600,-800,L,S,=,0.371743523809737,0.485401816670115,1.72785389795726,1.94505888301728,1.36993130144629,175128.321830972,175128.711208398,175128.711208398,175130.311069253,1.6,175132.061388656,175132.061388656,175134.461299942,2.4,175136.555258873,175137.011308918,0.456050045177108,66,Longer,Index,66,L,Index
216,Temporal,3421,4,2,68,1200,10,5,1,m,m,-800,800,-800,400,S,=,L,0.318114120410449,0.366885340292961,1.72344542604568,1.13922448114682,1.61435634388035,175138.538611748,175138.871547562,175138.871547562,175140.471422854,1.6,175142.231560407,175142.231560407,175144.63142646,2.4,175145.905245308,175146.987369698,1.08212439040653,77,Longer,Ring,78,=,Middle
216,Temporal,3421,4,2,69,1200,5,5,1,m,m,-800,800,-800,400,S,=,L,0.349413045945399,0.348048942886232,1.57995835786677,1.15840214273296,1.07770604882603,175148.755342751,175149.121573066,175149.121573066,175152.321392666,3.2,175153.931650809,175153.931650809,175156.331680471,2.4,175157.622062296,175158.227335167,0.605272870714543,66,Shorter,Index,66,S,Index
216,Temporal,3421,4,2,70,1200,10,5,1,r,r,0,1600,0,1200,L,S,=,0.318658640113173,0.494959918162724,1.09886224014112,1.52657236071863,1.74981878727712,175159.472026373,175159.801824421,175159.801824421,175161.401731151,1.6,175162.531649655,175162.531649655,175164.93151699,2.4,175166.605379981,175167.083503198,0.478123217559187,66,Longer,Index,66,L,Index
216,Temporal,3421,4,2,71,1200,20,7.5,1,l,l,-1600,0,-1600,-400,S,=,L,0.224283803263183,0.235881942468261,1.04501909391538,1.92194598988069,1.56896583458423,175168.988762942,175169.2316374,175169.2316374,175170.031595073,0.8,175171.101612435,175171.101612435,175172.701634333,1.6,175174.772120019,175175.691442859,0.919322839821689,77,Longer,Ring,78,=,Middle
216,Temporal,3421,4,2,72,800,15,5,1,m,m,-800,400,-800,0,=,L,S,0.468642021871164,0.424242848156307,1.51443291680032,1.89394078641631,1.952242118945,175177.405475323,175177.89207473,175177.89207473,175178.691833185,0.8,175180.231948578,175180.231948578,175181.831873273,1.6,175183.888825691,175184.531435724,0.642610033537494,78,Longer,Middle,78,L,Middle
216,Temporal,3421,4,2,73,1200,6.66666666666667,7.5,1,r,r,0,1600,0,1200,S,=,L,0.332214721766637,0.402951242310255,1.86422622854336,1.98263403964304,1.21269696067942,175189.922275411,175190.272107234,175190.272107234,175192.671976173,2.4,175194.572343408,175194.572343408,175196.172183732,1.6,175198.305579135,175198.771479148,0.465900013659848,66,Shorter,Index,78,=,Middle
216,Temporal,3421,4,2,74,1200,10,5,1,r,r,0,1600,0,1200,=,L,S,0.372888714495747,0.209448294198268,1.63055798532018,1.16680624825031,1.9092561771005,175200.138976628,175200.522410232,175200.522410232,175202.122332681,1.6,175203.782222768,175203.782222768,175206.18222869,2.4,175207.505657667,175208.131489106,0.625831438985188,78,Longer,Middle,78,L,Middle
216,Temporal,3421,4,2,75,1200,2.5,5,1,l,l,-1600,-800,-1600,-400,L,S,=,0.333944219515372,0.389823021179857,1.81170566289645,1.53697900013306,1.88580416925393,175210.205683267,175210.552338827,175210.552338827,175213.75229124,3.2,175215.602291894,175215.602291894,175218.002372563,2.4,175219.68911126,175220.651365045,0.962253784906352,78,Shorter,Middle,77,=,Ring
216,Temporal,3421,4,2,76,1200,5,5,1,r,r,0,1600,0,1200,=,L,S,0.479000172549708,0.495110370576048,1.11654008599937,1.04943255399289,1.64406167790251,175222.6891395,175223.182527081,175223.182527081,175226.382484626,3.2,175227.522849731,175227.522849731,175229.922764224,2.4,175231.122461092,175231.595449229,0.472988137364155,77,Shorter,Ring,66,=,Index
216,Temporal,3421,4,2,77,1600,5,5,2,l,l,-1600,0,-1600,0,L,S,=,0.490512153932186,0.44533307450669,1.52474697633019,1.85725219690484,1.12961767864372,175233.405848737,175233.912696214,175233.912696214,175237.112605959,3.2,175238.662846189,175238.662846189,175241.862789298,3.2,175243.855931834,175244.355611118,0.499679284519516,77,Equals to,Ring,66,L,Index
216,Temporal,3421,4,2,78,1200,20,7.5,1,l,l,-1600,0,-1600,-400,L,S,=,0.312817430487694,0.429415487354648,1.11927013672853,1.56990057201752,1.45577562733103,175245.622657005,175245.953009496,175245.953009496,175246.752869967,0.8,175247.913099462,175247.913099462,175249.51289327,1.6,175251.222629962,175251.619525752,0.396895789977862,66,Longer,Index,66,L,Index
216,Temporal,3421,4,2,79,400,2.5,5,2,r,r,0,400,0,400,=,L,S,0.242927265535833,0.233371862504123,1.55563380917965,1.28501391915144,1.45818019138171,175253.222699576,175253.483196338,175253.483196338,175255.083097614,1.6,175256.673072399,175256.673072399,175257.472986123,0.8,175258.905984115,175259.379517616,0.473533501062775,77,Shorter,Ring,77,S,Ring
216,Temporal,3421,4,2,80,400,5,5,2,r,r,0,400,0,400,L,S,=,0.418684552320499,0.234023822215152,1.81053529737226,1.70578570803856,1.30162926310737,175260.989378561,175261.423338184,175261.423338184,175262.223190313,0.8,175264.063207284,175264.063207284,175264.863044336,0.8,175266.705609803,175267.123535779,0.417925975547405,77,Equals to,Ring,77,=,Ring
216,Temporal,3421,4,2,81,800,2.5,3.33333333333333,1,r,r,0,400,0,800,S,=,L,0.348190941654775,0.278810029751859,1.9425483135404,1.74235249303858,1.05080039139575,175268.572775895,175268.933518199,175268.933518199,175270.533047665,1.6,175272.51327122,175272.51327122,175274.913187959,2.4,175276.78948036,175277.571480175,0.781999815080781,77,Longer,Ring,77,L,Ring
216,Temporal,3421,4,2,82,800,3.75,3.33333333333333,1,l,l,-1600,-400,-1600,-800,L,S,=,0.449433593514113,0.296778000853924,1.54356902262818,1.56830607713321,1.55908621760286,175278.77275346,175279.243623531,175279.243623531,175282.44349863,3.2,175284.013501235,175284.013501235,175286.413477964,2.4,175288.122839638,175288.571525087,0.448685448995093,78,Shorter,Middle,77,=,Ring
216,Temporal,3421,4,2,83,400,2.5,1.25,2,r,r,0,800,0,400,L,S,=,0.374099367018746,0.223755576614653,1.97834871128636,1.170774242761,1.76314505057685,175290.28954448,175290.683599201,175290.683599201,175293.883418801,3.2,175295.903785292,175295.903785292,175299.103725514,3.2,175300.422958779,175301.315523681,0.892564901820151,77,Equals to,Ring,77,=,Ring
216,Temporal,3421,4,2,84,1600,20,20,2,r,r,0,1600,0,1600,S,=,L,0.227192395493765,0.297084828738653,1.56701282135402,1.48759580039906,1.50233765564102,175303.222990543,175303.46387699,175303.46387699,175304.263589892,0.8,175305.853793088,175305.853793088,175306.653686601,0.8,175308.289618585,175308.691532363,0.401913777342997,78,Equals to,Middle,78,=,Middle
216,Temporal,3421,4,2,85,400,2.5,5,2,r,r,0,400,0,400,L,S,=,0.237287332938561,0.494475430225483,1.25487617806452,1.14755468362622,1.35289413389448,175310.339702539,175310.594108552,175310.594108552,175312.193638981,1.6,175313.474224143,175313.474224143,175314.274006338,0.8,175315.57306174,175316.299457909,0.726396168698557,78,Shorter,Middle,78,S,Middle
216,Temporal,3421,4,2,86,400,1.25,1.25,2,r,r,0,400,0,400,S,=,L,0.347990626154207,0.416489618864081,1.87157325727111,1.9258503058751,1.38442399718337,175317.806410654,175318.174019728,175318.174019728,175321.373925303,3.2,175323.27405739,175323.27405739,175326.47403675,3.2,175328.539742896,175328.955593282,0.415850385586964,78,Equals to,Middle,77,L,Ring
216,Temporal,3421,4,2,87,1200,5,5,1,m,m,-800,800,-800,400,=,L,S,0.485690891749678,0.317205393266797,1.30694122227698,1.21150159434355,1.0792937449304,175330.489809078,175330.994229366,175330.994229366,175334.19405474,3.2,175335.524415887,175335.524415887,175337.924204305,2.4,175339.289882616,175339.819585357,0.529702740721405,77,Shorter,Ring,66,=,Index
216,Temporal,3421,4,2,88,1600,15,20,2,m,m,-800,400,-800,800,L,S,=,0.355133533411319,0.37936584118684,1.22162554492909,1.55251977661798,1.46467080810211,175341.03990426,175341.414286751,175341.414286751,175342.214193096,0.8,175343.464398294,175343.464398294,175344.264312017,0.8,175345.956530345,175346.699573269,0.743042923975736,77,Equals to,Ring,77,=,Ring
216,Temporal,3421,4,2,89,800,5,5,1,l,l,-1600,-1200,-1600,-800,=,L,S,0.210855681231323,0.419894556824463,1.27088222223457,1.09154017865815,1.63135212698256,175348.323243785,175348.54458119,175348.54458119,175349.344474703,0.8,175350.644640346,175350.644640346,175352.244503126,1.6,175353.47324125,175353.87555603,0.402314780047163,78,Longer,Middle,78,L,Middle
216,Temporal,3421,4,2,90,1200,20,7.5,1,l,l,-1600,0,-1600,-400,L,S,=,0.461475939503769,0.239464142702575,1.62023101374071,1.24328136020068,1.26878242363708,175355.65660984,175356.134622656,175356.134622656,175356.93442827,0.8,175358.594593925,175358.594593925,175360.194456706,1.6,175361.589983081,175362.979544692,1.38956161102396,66,Longer,Index,78,S,Middle
216,Temporal,3421,4,2,91,1200,3.33333333333333,7.5,1,r,r,0,800,0,1200,S,=,L,0.333295062096427,0.207727433029722,1.53138620655957,1.78119659651005,1.23785670583027,175364.406698221,175364.75493694,175364.75493694,175367.154490852,2.4,175368.724554088,175368.724554088,175370.324564758,1.6,175372.256760386,175372.675490651,0.418730264675105,66,Shorter,Index,77,L,Ring
216,Temporal,3421,4,2,92,1200,3.33333333333333,7.5,1,m,m,-800,0,-800,400,L,S,=,0.436098855845952,0.352872388714051,1.93210818516993,1.86814062161659,1.90776743669983,175374.056773,175374.505138243,175374.505138243,175376.904719744,2.4,175378.874994582,175378.874994582,175380.474787427,1.6,175382.490124747,175383.259563594,0.769438846444245,78,Shorter,Middle,77,=,Ring
216,Temporal,3421,4,2,93,800,7.5,3.33333333333333,1,m,m,-800,400,-800,0,S,=,L,0.32857804160331,0.382041353629874,1.14411228863244,1.2860108313508,1.10845485498247,175385.306795937,175385.654991348,175385.654991348,175387.254836805,1.6,175388.435109057,175388.435109057,175390.835084823,2.4,175392.273545027,175392.707579849,0.434034821839305,77,Longer,Ring,77,L,Ring
216,Temporal,3421,4,2,94,400,5,5,2,l,l,-1600,-1200,-1600,-1200,S,=,L,0.320793015779402,0.201953470482993,1.51120867244987,1.82892005421617,1.0048930371957,175393.956900872,175394.294991977,175394.294991977,175395.094924307,0.8,175396.635406697,175396.635406697,175397.435220651,0.8,175399.423530389,175399.931659195,0.508128805930028,78,Equals to,Middle,78,=,Middle
216,Temporal,3421,4,2,95,800,1.66666666666667,5,1,r,r,0,400,0,800,S,=,L,0.367146653452319,0.423198513921633,1.01590215391517,1.69926419010412,1.11771277479967,175401.090270199,175401.475318399,175401.475318399,175403.875304752,2.4,175404.925498145,175404.925498145,175406.525343602,1.6,175408.37364685,175408.75560297,0.381956120108953,66,Shorter,Index,78,=,Middle
216,Temporal,3421,4,2,96,1200,20,7.5,1,m,m,-800,800,-800,400,S,=,L,0.377502999510902,0.471451659782139,1.91103027523565,1.4292105812541,1.60131053742662,175410.023638949,175410.415589849,175410.415589849,175411.2154346,0.8,175413.145455825,175413.145455825,175414.745445963,1.6,175416.323638692,175417.411590454,1.0879517616122,77,Longer,Ring,77,L,Ring
