Subject,Task,SequenceOrder,ListNo,RunNo,TrialNo,Aud_Probe_Dist,Aud_Standard_Vel,Aud_Probe_Vel,Main_Control,Aud_Std_StartCode,Aud_Probe_StartCode,Aud_Std_StartPt,Aud_Std_EndPt,Aud_Probe_StartPt,Aud_Probe_EndPt,RespIndex,RespMiddle,RespRing,ISI_Cross_Std,ISI_Cross_Probe,ISI_Std_Probe,ISI_Probe_Response,ITI,TrialOnset,StdOnset,StdOnsetByStop,StdOffset,StdDur,ProbeOnset,ProbeOnsetByStop,ProbeOffset,ProbeDur,RespWinStart,RespTime,RT,CorrectKC,CorrectResponse,CorrectFinger,SubjRespKC,SubjResponse,SubjRespFinger
211,Temporal,1243,1,0,1,1200,20,7.5,1,r,r,0,1600,0,1200,=,L,S,0.216129850141238,0.449030203620139,1.08858634074294,1.39132166402895,1.57460496769557,11445.3406389468,11445.5681504123,11445.5681504123,11446.3673456239,0.8,11447.4977874061,11447.4977874061,11449.0976804894,1.6,11450.6240238009,11451.8421685286,1.21814472769074,78,Longer,Middle,78,L,Middle
211,Temporal,1243,1,0,2,1200,5,5,1,m,m,-800,0,-800,400,L,S,=,0.465345730926593,0.219054737953729,1.01284842797029,1.24627116313808,1.41037801850131,11453.5740515823,11454.0576682219,11454.0576682219,11455.6577104779,1.6,11456.6977179846,11456.6977179846,11459.0977369504,2.4,11460.4906986801,11461.0181888058,0.527490125728946,66,Longer,Index,66,L,Index
211,Temporal,1243,1,0,3,1200,3.33333333333333,7.5,1,r,r,0,800,0,1200,S,=,L,0.41926166902777,0.433622179211184,1.63690179794299,1.8142469813701,1.63796313960586,11462.6073940906,11463.0379328319,11463.0379328319,11465.4375479085,2.4,11467.1077421346,11467.1077421346,11468.70775616,1.6,11470.6741246609,11471.2421653847,0.568040723830563,66,Shorter,Index,78,=,Middle
211,Temporal,1243,1,0,4,800,5,5,1,m,m,-800,400,-800,0,L,S,=,0.444359330055046,0.285510700536798,1.58168777708024,1.01292593511102,1.56502608112008,11473.0407828584,11473.4981033956,11473.4981033956,11475.8980010984,2.4,11477.5077053066,11477.5077053066,11479.1077494874,1.6,11480.2741114439,11480.7700542668,0.495942822899451,78,Shorter,Middle,78,S,Middle
211,Temporal,1243,1,0,5,1200,5,5,1,r,r,0,1600,0,1200,=,L,S,0.202991656945839,0.433565414589502,1.46400839362476,1.30041481786971,1.16254123806015,11482.4908372664,11482.7080221302,11482.7080221302,11485.9078737659,3.2,11487.4082276356,11487.4082276356,11489.80802589,2.4,11491.2574916784,11491.6739944155,0.41650273707819,77,Shorter,Ring,66,=,Index
211,Temporal,1243,1,0,6,400,5,5,2,r,r,0,400,0,400,S,=,L,0.288000749137153,0.3183966324303,1.69189867691027,1.86049281153403,1.82689958045026,11493.0075372322,11493.308109324,11493.308109324,11494.1081036523,0.8,11495.8282088238,11495.8282088238,11496.6279728166,0.8,11498.6408806387,11499.0341230184,0.393242379681396,78,Equals to,Middle,78,=,Middle
211,Temporal,1243,1,0,7,1200,20,7.5,1,l,l,-1600,0,-1600,-400,S,=,L,0.464603346405672,0.404051540664884,1.57179541848854,1.37055151283959,1.18645960832996,11501.0242339901,11501.5085005736,11501.5085005736,11502.3082703407,0.8,11503.9083713547,11503.9083713547,11505.5082929893,1.6,11507.0242442557,11507.4259346232,0.401690367483752,77,Longer,Ring,77,L,Ring
211,Temporal,1243,1,0,8,400,1.66666666666667,1.25,2,r,r,0,400,0,400,=,L,S,0.241618317497293,0.441045908278511,1.44051053845664,1.07831349086844,1.53751147328124,11508.7742824311,11509.028395402,11509.028395402,11511.4284121222,2.4,11512.8986003814,11512.8986003814,11516.0984350146,3.2,11517.3242787098,11517.7458632641,0.42158455430399,78,Longer,Middle,78,L,Middle
211,Temporal,1243,1,0,9,800,2.5,3.33333333333333,1,r,r,0,400,0,800,L,S,=,0.470525592336479,0.311509293184446,1.52788295655387,1.37683829254786,1.15647353158463,11519.4243270867,11519.9086581513,11519.9086581513,11521.5085214,1.6,11523.0687673137,11523.0687673137,11525.4686332571,2.4,11526.9905745299,11527.4500444631,0.459469933197397,66,Longer,Index,77,=,Ring
211,Temporal,1243,1,0,10,1600,5,5,2,l,l,-1600,-400,-1600,0,=,L,S,0.38064064780888,0.35692324065593,1.95613667626589,1.38897366023913,1.09685810832293,11528.7744001653,11529.1687037308,11529.1687037308,11531.5685982256,2.4,11533.5586678395,11533.5586678395,11536.7587392243,3.2,11538.2910937151,11538.7141023075,0.423008592348197,78,Longer,Middle,66,=,Index
211,Temporal,1243,1,0,11,400,2.5,1.25,2,l,l,-1600,-800,-1600,-1200,L,S,=,0.438279857802461,0.495912257778498,1.77246549063233,1.46030102140199,1.60756793132369,11539.9744430244,11540.428987345,11540.428987345,11543.6288931962,3.2,11545.4289828538,11545.4289828538,11548.6288989706,3.2,11550.241091662,11550.8898787755,0.648787113530489,77,Equals to,Ring,66,L,Index
211,Temporal,1243,1,0,12,1200,2.5,5,1,r,r,0,800,0,1200,=,L,S,0.344619101480283,0.306865781395318,1.84209518508738,1.87015842819163,1.31211361679445,11552.6578077321,11553.0189718567,11553.0189718567,11556.2188045651,3.2,11558.0990211447,11558.0990211447,11560.4988790681,2.4,11562.5078394273,11562.8820127217,0.374173294427237,77,Shorter,Ring,77,S,Ring
211,Temporal,1243,1,0,13,800,1.25,3.33333333333333,1,r,r,0,400,0,800,=,L,S,0.290187543533597,0.382692291461038,1.78105775860529,1.75487820351267,1.97563048064321,11564.357858932,11564.6593401754,11564.6593401754,11567.8591812246,3.2,11569.669128472,11569.669128472,11572.068980621,2.4,11573.9746135327,11575.0339693545,1.05935582173879,77,Shorter,Ring,77,S,Ring
211,Temporal,1243,1,0,14,1200,5,5,1,l,l,-1600,0,-1600,-400,=,L,S,0.292254020243908,0.379057335038416,1.00393538274651,1.73883510487737,1.67048780352101,11577.1745705751,11577.4793538287,11577.4793538287,11580.6790829182,3.2,11581.7092710106,11581.7092710106,11584.1092928636,2.4,11585.9912475715,11586.3698155263,0.378567954749087,77,Shorter,Ring,66,=,Index
211,Temporal,1243,1,0,15,800,7.5,3.33333333333333,1,l,l,-1600,-400,-1600,-800,L,S,=,0.358291044883407,0.389094541470138,1.21732673643222,1.89819873806879,1.02081162998169,11588.1913074331,11588.5695484654,11588.5695484654,11590.1692025515,1.6,11591.4194835993,11591.4194835993,11593.8192892321,2.4,11595.8747210031,11596.5938488871,0.719127883950932,66,Longer,Index,66,L,Index
211,Temporal,1243,1,0,16,1200,10,7.5,1,m,m,-800,0,-800,400,S,=,L,0.326946367470473,0.444963084473761,1.33665994403414,1.14667348365096,1.32843290657748,11597.7913484315,11598.1297520076,11598.1297520076,11598.9292721911,0.8,11600.289760759,11600.289760759,11601.889558885,1.6,11603.1913231524,11603.713871972,0.522548819579242,77,Longer,Ring,78,=,Middle
211,Temporal,1243,1,0,17,1200,6.66666666666667,7.5,1,l,l,-1600,0,-1600,-400,S,=,L,0.242890033516154,0.492892459908625,1.89035293364833,1.12059050736162,1.43950206109894,11605.2080404415,11605.4694375322,11605.4694375322,11607.869409661,2.4,11609.799658449,11609.799658449,11611.3994742191,1.6,11612.6581102191,11613.1297619781,0.471651758938606,66,Shorter,Index,66,S,Index
211,Temporal,1243,1,0,18,400,2.5,5,2,l,l,-1600,-1200,-1600,-1200,L,S,=,0.385190115734961,0.429032901731024,1.24566263234802,1.0903640493312,1.39698158365132,11614.7247404074,11615.1296862433,11615.1296862433,11616.7296473364,1.6,11617.9998013982,11617.9998013982,11618.7995499924,0.8,11620.0247344405,11620.4417289663,0.41699452584362,78,Shorter,Middle,78,S,Middle
211,Temporal,1243,1,0,19,800,7.5,3.33333333333333,1,r,r,0,1200,0,800,L,S,=,0.309687127605513,0.215669446304874,1.61578217656003,1.79024174368808,1.00204092268775,11621.9914397317,11622.3200027204,11622.3200027204,11623.919843513,1.6,11625.5700219685,11625.5700219685,11627.9698757215,2.4,11629.9081865699,11630.3617367811,0.453550211133916,66,Longer,Index,66,L,Index
211,Temporal,1243,1,0,20,800,2.5,3.33333333333333,1,m,m,-800,-400,-800,0,S,=,L,0.425683382710503,0.261058228138978,1.70539916756059,1.92313951058233,1.03919010280075,11631.5248438338,11631.9699209802,11631.9699209802,11633.5697550359,1.6,11635.3099189655,11635.3099189655,11637.7099376105,2.4,11639.7748220193,11640.322029891,0.547207871699356,77,Longer,Ring,77,L,Ring
