Subject,Task,SequenceOrder,ListNo,RunNo,TrialNo,Aud_Probe_Dist,Aud_Standard_Vel,Aud_Probe_Vel,Main_Control,Aud_Std_StartCode,Aud_Probe_StartCode,Aud_Std_StartPt,Aud_Std_EndPt,Aud_Probe_StartPt,Aud_Probe_EndPt,RespIndex,RespMiddle,RespRing,ISI_Cross_Std,ISI_Cross_Probe,ISI_Std_Probe,ISI_Probe_Response,ITI,TrialOnset,StdOnset,StdOnsetByStop,StdOffset,StdDur,ProbeOnset,ProbeOnsetByStop,ProbeOffset,ProbeDur,RespWinStart,RespTime,RT,CorrectKC,CorrectResponse,CorrectFinger,SubjRespKC,SubjResponse,SubjRespFinger
207,Spatial,4132,1,2,1,800,1.25,3.33333333333333,1,r,r,0,400,0,800,L,S,=,0.350489064801387,0.323746353024305,1.86811957592445,1.23975604554679,1.82302027255048,852151.499806717,852151.86126728,852151.86126728,852155.063078556,3.2,852156.963430799,852156.963430799,852159.363423514,2.4,852160.749826174,852161.166262617,0.416436442988925,66,Longer,Index,77,=,Ring
207,Spatial,4132,1,2,2,1600,5,5,2,r,r,0,1600,0,1600,=,L,S,0.256751458280725,0.33452838734192,1.56377770151717,1.96528942821568,1.62472063716612,852163.133203024,852163.403692202,852163.403692202,852166.603220972,3.2,852168.193457917,852168.193457917,852171.393371971,3.2,852173.516558348,852173.982485181,0.465926833334379,66,Equals to,Index,66,=,Index
207,Spatial,4132,1,2,3,1200,6.66666666666667,7.5,1,m,m,-800,800,-800,400,S,=,L,0.463468092212324,0.383253188889252,1.82904042178227,1.47835489020907,1.5971965898182,852175.749958697,852176.233737476,852176.233737476,852178.633599304,2.4,852180.49381282,852180.49381282,852182.093666371,1.6,852183.732865412,852184.606471407,0.873605995671824,66,Shorter,Index,78,=,Middle
207,Spatial,4132,1,2,4,800,15,5,1,m,m,-800,400,-800,0,S,=,L,0.392411711887975,0.244756853344914,1.76903805084958,1.80002447484437,1.89300663754071,852186.349994819,852186.753972855,852186.753972855,852187.553764876,0.8,852189.353923965,852189.353923965,852190.953760513,1.6,852192.900007988,852193.350373044,0.450365056400187,66,Shorter,Index,66,S,Index
207,Spatial,4132,1,2,5,1200,10,5,1,m,m,-800,800,-800,400,=,L,S,0.272574580618701,0.206080763567582,1.1644534978639,1.77438686940837,1.50637052503262,852195.383382272,852195.673880823,852195.673880823,852197.273670855,1.6,852198.464132233,852198.464132233,852200.863951073,2.4,852202.783373418,852204.406477759,1.62310434167739,77,Shorter,Ring,66,=,Index
207,Spatial,4132,1,2,6,1600,6.66666666666667,5,2,r,r,0,1600,0,1600,S,=,L,0.242735434174683,0.438718101998002,1.75285082466831,1.77964885447558,1.90717229481118,852206.05012144,852206.304215397,852206.304215397,852208.704077866,2.4,852210.484298479,852210.484298479,852213.684098006,3.2,852215.616807001,852216.302468346,0.685661344323307,78,Equals to,Middle,78,=,Middle
207,Spatial,4132,1,2,7,400,10,5,2,r,r,0,800,0,400,=,L,S,0.432529558438733,0.265511371887158,1.24974941599367,1.19472063971341,1.32047909178791,852218.35016709,852218.794401908,852218.794401908,852219.594232105,0.8,852220.884298928,852220.884298928,852221.684103781,0.8,852223.033477919,852223.56644464,0.532966720988043,77,Shorter,Ring,78,L,Middle
207,Spatial,4132,1,2,8,800,3.75,3.33333333333333,1,r,r,0,1200,0,800,L,S,=,0.462220572863694,0.201972223618649,1.61280904095795,1.60358255810675,1.92854308961237,852225.033527964,852225.514391617,852225.514391617,852228.714234453,3.2,852230.364478346,852230.364478346,852232.764334078,2.4,852234.516874338,852235.046387948,0.529513609828427,78,Shorter,Middle,66,L,Index
207,Spatial,4132,1,2,9,800,1.66666666666667,5,1,l,l,-1600,-1200,-1600,-800,L,S,=,0.457931649393787,0.32126916785808,1.544546974155,1.86250688947753,1.70031913819595,852237.116946021,852237.594593363,852237.594593363,852239.994405145,2.4,852241.574723538,852241.574723538,852243.174520627,1.6,852245.183600994,852245.494404735,0.310803740168922,66,Longer,Index,78,S,Middle
207,Spatial,4132,1,2,10,1200,2.5,5,1,m,m,-800,0,-800,400,S,=,L,0.3715021726349,0.481211001655644,1.13679547054708,1.05012334200437,1.33301366140482,852247.350316904,852247.734389185,852247.734389185,852250.934428673,3.2,852252.104897358,852252.104897358,852254.504679306,2.4,852255.700316856,852256.078432203,0.378115346771665,77,Longer,Ring,77,L,Ring
207,Spatial,4132,1,2,11,400,5,5,2,r,r,0,400,0,400,L,S,=,0.457704341159814,0.210768258453187,1.24774647717671,1.07529826378032,1.03406786659001,852257.566984549,852258.044863462,852258.044863462,852258.844729588,0.8,852260.134876932,852260.134876932,852260.934698467,0.8,852262.150354695,852262.614588657,0.464233962120488,77,Equals to,Ring,77,=,Ring
207,Spatial,4132,1,2,12,400,1.25,1.25,2,l,l,-1600,-1200,-1600,-1200,S,=,L,0.382050799681624,0.363835641045038,1.77719180369837,1.7711016930481,1.53635808761314,852263.800397409,852264.195009956,852264.195009956,852267.394799218,3.2,852269.204882633,852269.204882633,852272.40476974,3.2,852274.31708472,852274.62236746,0.305282740388066,78,Equals to,Middle,78,=,Middle
207,Spatial,4132,1,2,13,1600,20,20,2,r,r,0,1600,0,1600,=,L,S,0.206557478721519,0.284529974290207,1.79515262149716,1.15109874548601,1.73656946583332,852276.300441199,852276.525211622,852276.525211622,852277.325043101,0.8,852279.144971604,852279.144971604,852279.94474951,0.8,852281.250446155,852281.694417631,0.443971475586295,66,Equals to,Index,66,=,Index
207,Spatial,4132,1,2,14,1600,15,20,2,l,l,-1600,-400,-1600,0,S,=,L,0.20216650425913,0.468283047020829,1.14513731723641,1.10467699717793,1.98713403279069,852283.583849375,852283.8050968,852283.8050968,852284.604886576,0.8,852285.775097657,852285.775097657,852286.574900585,0.8,852287.817155456,852288.310489354,0.49333389790263,77,Longer,Ring,77,L,Ring
207,Spatial,4132,1,2,15,400,1.25,1.25,2,r,r,0,400,0,400,S,=,L,0.38681322280437,0.316476529959288,1.88120766949201,1.13024503906853,1.25929282411274,852290.450512946,852290.855195784,852290.855195784,852294.05501488,3.2,852295.965416884,852295.965416884,852299.165299499,3.2,852300.450547272,852301.910427953,1.45988068100996,78,Equals to,Middle,78,=,Middle
207,Spatial,4132,1,2,16,1200,6.66666666666667,7.5,1,m,m,-800,800,-800,400,=,L,S,0.261445344840726,0.334408361792305,1.6053282947978,1.16036904196451,1.27780548488101,852303.317266293,852303.595257423,852303.595257423,852305.995162879,2.4,852307.635442987,852307.635442987,852309.235271515,1.6,852310.550599595,852311.214368779,0.663769184378907,77,Shorter,Ring,77,S,Ring
207,Spatial,4132,1,2,17,1200,10,5,1,l,l,-1600,0,-1600,-400,L,S,=,0.483789208980705,0.478894904592522,1.04575243114669,1.81653272639578,1.8987679255326,852312.633966757,852313.135618626,852313.135618626,852314.73540128,1.6,852315.815423091,852315.815423091,852318.215409711,2.4,852320.184022207,852320.590552899,0.406530691660009,78,Shorter,Middle,78,S,Middle
207,Spatial,4132,1,2,18,800,7.5,3.33333333333333,1,r,r,0,1200,0,800,=,L,S,0.475257357364401,0.456509668391744,1.53612883008944,1.76290991436239,1.686496836116,852322.634019625,852323.125610571,852323.125610571,852324.725462518,1.6,852326.285878684,852326.285878684,852328.685675389,2.4,852330.600718468,852331.174381791,0.573663322953507,77,Shorter,Ring,66,=,Index
207,Spatial,4132,1,2,19,1600,3.75,5,2,l,l,-1600,-400,-1600,0,=,L,S,0.336619845011093,0.369730185801902,1.51042460549821,1.30705522892186,1.55142831314732,852333.00074811,852333.35586225,852333.35586225,852336.555661457,3.2,852338.095963347,852338.095963347,852341.295787256,3.2,852342.75081126,852343.110356478,0.359545218409039,78,Longer,Middle,78,L,Middle
207,Spatial,4132,1,2,20,800,5,5,1,m,m,-800,-400,-800,0,=,L,S,0.210635381918323,0.474229427971385,1.00631567343874,1.1300165355836,1.30708683472982,852344.817478183,852345.046140574,852345.046140574,852345.845950881,0.8,852346.886059809,852346.886059809,852348.485896678,1.6,852349.767469666,852350.326438018,0.558968352619559,78,Longer,Middle,78,L,Middle
207,Spatial,4132,1,2,21,1200,3.33333333333333,7.5,1,m,m,-800,0,-800,400,L,S,=,0.233384617319922,0.352864319568869,1.02327120020898,1.60777994968482,1.60891232539081,852351.784198199,852352.036065471,852352.036065471,852354.435775239,2.4,852355.486048132,852355.486048132,852357.086059838,1.6,852358.834231194,852359.294351097,0.460119902854785,66,Longer,Index,66,L,Index
207,Spatial,4132,1,2,22,800,15,5,1,r,r,0,1200,0,800,S,=,L,0.359124306809232,0.417468183071512,1.91161376084017,1.46588264261131,1.07219277839513,852361.050891685,852361.426098928,852361.426098928,852362.225976603,0.8,852364.155926667,852364.155926667,852365.755933882,1.6,852367.367564495,852368.334370486,0.966805990901776,66,Shorter,Index,77,L,Ring
207,Spatial,4132,1,2,23,1200,3.33333333333333,7.5,1,l,l,-1600,-800,-1600,-400,S,=,L,0.216484987684075,0.497055685725813,1.23288340370669,1.85705689183215,1.02766061708674,852369.550959214,852369.786507937,852369.786507937,852372.186258126,2.4,852373.446393815,852373.446393815,852375.046181601,1.6,852377.050990139,852377.502329503,0.451339363702573,77,Longer,Ring,66,S,Index
207,Spatial,4132,1,2,24,1200,5,5,1,m,m,-800,0,-800,400,=,L,S,0.370998891392796,0.441959769413491,1.68552437519878,1.01548008827242,1.40184411915847,852378.667651849,852379.056361,852379.056361,852380.656115744,1.6,852382.366691558,852382.366691558,852384.766426989,2.4,852385.934332182,852386.550386582,0.616054400335997,78,Longer,Middle,78,L,Middle
207,Spatial,4132,1,2,25,1600,7.5,20,2,r,r,0,1200,0,1600,S,=,L,0.360405278821775,0.397821914932112,1.26575950317093,1.03703430206346,1.79024345240615,852388.217706722,852388.59656854,852388.59656854,852390.1963698,1.6,852391.496754573,852391.496754573,852392.29625306,0.8,852393.484353692,852394.686365184,1.20201149187051,77,Longer,Ring,66,S,Index
207,Spatial,4132,1,2,26,400,1.66666666666667,1.25,2,m,m,-800,-400,-800,-400,L,S,=,0.300999075499191,0.350674458002459,1.10951880522762,1.06180965302024,1.21970661810933,852396.617751442,852396.936739765,852396.936739765,852399.33665677,2.4,852400.476636768,852400.476636768,852403.676468376,3.2,852404.884423755,852405.270358326,0.385934571153484,77,Equals to,Ring,77,=,Ring
207,Spatial,4132,1,2,27,1200,5,5,1,r,r,0,1600,0,1200,L,S,=,0.36651034317932,0.365055492725335,1.23928451805774,1.61650049401261,1.17367912030979,852406.634485429,852407.016903335,852407.016903335,852410.216707996,3.2,852411.486802337,852411.486802337,852413.886845417,2.4,852415.651134403,852416.03034593,0.379211526829749,78,Shorter,Middle,77,=,Ring
207,Spatial,4132,1,2,28,1600,15,20,2,r,r,0,1200,0,1600,=,L,S,0.277502435582168,0.387728375176447,1.73631797943547,1.49725841367423,1.37457650122778,852417.351176011,852417.646923523,852417.646923523,852418.446699183,0.8,852420.217085615,852420.217085615,852421.016887901,0.8,852422.667835027,852423.166339609,0.498504582210444,78,Longer,Middle,66,=,Index
207,Spatial,4132,1,2,29,800,5,5,1,m,m,-800,400,-800,0,L,S,=,0.34096577949255,0.226113634740709,1.90266567810301,1.48120941616804,1.65199966998682,852424.684560673,852425.036993551,852425.036993551,852427.436860832,2.4,852429.366993753,852429.366993753,852430.96694162,1.6,852432.601281074,852432.878212389,0.276931315311231,78,Shorter,Middle,78,S,Middle
207,Spatial,4132,1,2,30,800,1.25,3.33333333333333,1,r,r,0,400,0,800,S,=,L,0.346625701238853,0.464469128375948,1.51181247768109,1.20057598488876,1.04100867139379,852434.684649984,852435.047272363,852435.047272363,852438.247116482,3.2,852439.797105947,852439.797105947,852442.196983815,2.4,852443.55128194,852444.566366043,1.01508410309907,77,Longer,Ring,66,S,Index
207,Spatial,4132,1,2,31,800,7.5,3.33333333333333,1,m,m,-800,400,-800,0,S,=,L,0.43402833545278,0.241543270810823,1.04178826790131,1.25504027007445,1.88715563470177,852445.751334937,852446.197313313,852446.197313313,852447.797187716,1.6,852448.877540274,852448.877540274,852451.277302012,2.4,852452.668047574,852453.070302442,0.402254868065938,66,Shorter,Index,66,S,Index
207,Spatial,4132,1,2,32,1600,20,20,2,r,r,0,1600,0,1600,S,=,L,0.293597002582916,0.209621064181701,1.3872234506258,1.09327848033902,1.12104738766146,852455.10137146,852455.407559147,852455.407559147,852456.207305935,0.8,852457.617619557,852457.617619557,852458.417167769,0.8,852459.668053172,852460.022511628,0.35445845592767,78,Equals to,Middle,78,=,Middle
207,Spatial,4132,1,2,33,800,5,5,1,l,l,-1600,-400,-1600,-800,S,=,L,0.416218935114158,0.484943729952201,1.41948406849035,1.69634106949769,1.95826127756564,852461.28475463,852461.717720963,852461.717720963,852464.117509647,2.4,852465.567555862,852465.567555862,852467.167317343,1.6,852469.017870588,852471.390356504,2.37248591601383,66,Shorter,Index,78,=,Middle
207,Spatial,4132,1,2,34,400,2.5,1.25,2,l,l,-1600,-800,-1600,-1200,S,=,L,0.340449741582922,0.237994510583739,1.23390802232537,1.85893672064275,1.60017727221559,852473.50150023,852473.857863893,852473.857863893,852477.057700634,3.2,852478.317757085,852478.317757085,852481.517587089,3.2,852483.518187059,852483.814448851,0.296261792187579,66,Shorter,Index,78,=,Middle
207,Spatial,4132,1,2,35,400,10,5,2,m,m,-800,0,-800,-400,L,S,=,0.219656124017585,0.41479608938121,1.24935691102718,1.29771871059206,1.8893830180694,852485.568196218,852485.807822333,852485.807822333,852486.60764868,0.8,852487.877784404,852487.877784404,852488.677755112,0.8,852490.11824652,852491.030238462,0.911991942091845,78,Shorter,Middle,78,S,Middle
207,Spatial,4132,1,2,36,800,1.66666666666667,5,1,m,m,-800,-400,-800,0,=,L,S,0.263581930430279,0.255573253602893,1.37634443126696,1.42985800134703,1.08363277177139,852493.068246423,852493.34804078,852493.34804078,852495.747859941,2.4,852497.158115177,852497.158115177,852498.757870883,1.6,852500.334922265,852500.702447622,0.367525356938131,78,Longer,Middle,78,L,Middle
207,Spatial,4132,1,2,37,1200,5,5,1,m,m,-800,0,-800,400,=,L,S,0.390148770952742,0.376907875435298,1.55071258937117,1.74443622499848,1.6056618497658,852501.934956142,852502.338176764,852502.338176764,852503.93802839,1.6,852505.518355124,852505.518355124,852507.918139959,2.4,852509.818283396,852510.270208832,0.451925436616875,78,Longer,Middle,78,L,Middle
207,Spatial,4132,1,2,38,1200,2.5,5,1,r,r,0,800,0,1200,L,S,=,0.31978253566159,0.225342719699537,1.17247752227895,1.59430983398335,1.50526119135868,852512.03501071,852512.368290434,852512.368290434,852515.568191335,3.2,852516.768258803,852516.768258803,852519.168177412,2.4,852520.917920601,852521.398350244,0.480429643532261,66,Longer,Index,77,=,Ring
207,Spatial,4132,1,2,39,1600,3.75,5,2,l,l,-1600,-400,-1600,0,=,L,S,0.385329864329346,0.433330497681329,1.92110682673807,1.98973004929424,1.99427081112252,852523.051759775,852523.448366105,852523.448366105,852526.648185843,3.2,852528.608508785,852528.608508785,852531.808302217,3.2,852533.935140571,852534.294258706,0.359118135063909,78,Longer,Middle,78,L,Middle
207,Spatial,4132,1,2,40,1200,10,7.5,1,r,r,0,800,0,1200,=,L,S,0.357426740578862,0.43227903455299,1.02365969151357,1.41111400141366,1.22015243707186,852536.435136272,852536.808667646,852536.808667646,852537.608462875,0.8,852538.658557723,852538.658557723,852540.258364116,1.6,852541.818485822,852542.278249089,0.459763267426752,78,Longer,Middle,66,=,Index
207,Spatial,4132,1,2,41,800,2.5,3.33333333333333,1,r,r,0,400,0,800,=,L,S,0.252868699256036,0.307000074152639,1.49215998205461,1.83153827234101,1.1659734823086,852543.651859736,852543.918822981,852543.918822981,852545.518641244,1.6,852547.038639906,852547.038639906,852549.438473503,2.4,852551.418563648,852551.92650173,0.507938081398606,78,Longer,Middle,66,=,Index
207,Spatial,4132,1,2,42,1200,10,7.5,1,m,m,-800,0,-800,400,L,S,=,0.215615576003703,0.481423942959666,1.33227777555293,1.68256127808211,1.22772536323425,852553.235219937,852553.468897103,852553.468897103,852554.268687199,0.8,852555.628635893,852555.628635893,852557.228622256,1.6,852559.068558563,852559.542480742,0.473922178032808,66,Longer,Index,66,L,Index
207,Spatial,4132,1,2,43,1200,3.33333333333333,7.5,1,r,r,0,800,0,1200,L,S,=,0.39554127578552,0.282506962025131,1.334578460643,1.86259790730293,1.53091766182349,852560.918599418,852561.328816729,852561.328816729,852563.728714165,2.4,852565.099106564,852565.099106564,852566.698648937,1.6,852568.718647698,852569.13436561,0.415717911091633,66,Longer,Index,77,=,Ring
207,Spatial,4132,1,2,44,800,5,5,1,m,m,-800,400,-800,0,S,=,L,0.286240907017938,0.43788993426884,1.95561289935123,1.06217460720693,1.21533245103366,852570.818646864,852571.118898113,852571.118898113,852573.518787529,2.4,852575.509082988,852575.509082988,852577.108923065,1.6,852578.318644137,852578.846190911,0.527546773781069,66,Shorter,Index,66,S,Index
207,Spatial,4132,1,2,45,800,1.66666666666667,5,1,r,r,0,400,0,800,S,=,L,0.341546189561815,0.352967761455621,1.84372870494074,1.71974563904931,1.46084021290025,852580.218700887,852580.579133601,852580.579133601,852582.978968481,2.4,852584.859147421,852584.859147421,852586.458961834,1.6,852588.318698994,852588.854228281,0.535529286251403,77,Longer,Ring,78,=,Middle
207,Spatial,4132,1,2,46,1600,6.66666666666667,5,2,m,m,-800,800,-800,800,S,=,L,0.297097919290312,0.243701227950194,1.96194132350519,1.08714216787421,1.12935979569481,852590.468760155,852590.779209374,852590.779209374,852593.179132475,2.4,852595.17918865,852595.17918865,852598.379066775,3.2,852599.618752665,852599.966284367,0.347531702485867,78,Equals to,Middle,77,L,Ring
207,Spatial,4132,1,2,47,800,5,5,1,l,l,-1600,-1200,-1600,-800,=,L,S,0.266472464646616,0.270470416777745,1.71178009179955,1.53977571860607,1.28607080111264,852601.235495089,852601.51946991,852601.51946991,852602.319244929,0.8,852604.059558753,852604.059558753,852605.65936258,1.6,852607.335521715,852607.790361123,0.454839408048429,78,Longer,Middle,66,=,Index
207,Spatial,4132,1,2,48,1200,2.5,5,1,m,m,-800,0,-800,400,=,L,S,0.440315193766245,0.401674734130673,1.76519811491463,1.04290408085451,1.05222538152188,852609.218877007,852609.669316776,852609.669316776,852612.869307501,3.2,852614.669864705,852614.669864705,852617.069321039,2.4,852618.25219645,852618.726265235,0.474068784504198,78,Longer,Middle,78,L,Middle
207,Spatial,4132,1,2,49,800,2.5,3.33333333333333,1,m,m,-800,-400,-800,0,S,=,L,0.347574561805938,0.386061004531344,1.4796777411584,1.9172809145492,1.23408026986675,852674.985879265,852675.350546563,852675.350546563,852676.950379582,1.6,852678.460415422,852678.460415422,852680.860245811,2.4,852682.919199959,852683.294213473,0.375013513839804,77,Longer,Ring,77,L,Ring
207,Spatial,4132,1,2,50,800,3.75,3.33333333333333,1,m,m,-800,400,-800,0,S,=,L,0.296490534480582,0.31885904439629,1.90454964468983,1.90188315857031,1.81859872995332,852684.685892322,852685.000708937,852685.000708937,852688.200547923,3.2,852690.140605491,852690.140605491,852692.540632531,2.4,852694.585973132,852695.198303022,0.612329890835099,66,Shorter,Index,66,S,Index
207,Spatial,4132,1,2,51,800,3.75,3.33333333333333,1,r,r,0,1200,0,800,=,L,S,0.280054241335051,0.43039157197982,1.80200963197353,1.52736386626677,1.55591948026167,852697.185997705,852697.48075458,852697.48075458,852700.680568544,3.2,852702.520875343,852702.520875343,852704.920676218,2.4,852706.602684245,852707.15822621,0.555541964131407,77,Shorter,Ring,66,=,Index
207,Spatial,4132,1,2,52,1200,5,5,1,l,l,-1600,-800,-1600,-400,L,S,=,0.341163738616202,0.300429507089928,1.84482166477242,1.05549729761137,1.0188559977419,852708.852722437,852709.210952846,852709.210952846,852710.810694116,1.6,852712.681175857,852712.681175857,852715.080721054,2.4,852716.286052273,852717.534144385,1.24809211120009,66,Longer,Index,66,L,Index
207,Spatial,4132,1,2,53,1200,10,7.5,1,m,m,-800,0,-800,400,S,=,L,0.302707568551814,0.462793103100116,1.22634971419279,1.66502015170445,1.89627701492222,852718.702715491,852719.020967894,852719.020967894,852719.820796487,0.8,852721.080968748,852721.080968748,852722.680815883,1.6,852724.502787239,852724.894206607,0.391419368446805,77,Longer,Ring,77,L,Ring
207,Spatial,4132,1,2,54,400,3.33333333333333,1.25,2,r,r,0,800,0,400,S,=,L,0.414931622380325,0.490558983966593,1.28461188974843,1.72324307959408,1.20054978159512,852726.952763211,852727.381346749,852727.381346749,852729.781137358,2.4,852731.101126653,852731.101126653,852734.300927785,3.2,852736.169516189,852736.494149376,0.32463318714872,66,Shorter,Index,78,=,Middle
207,Spatial,4132,1,2,55,1200,10,7.5,1,m,m,-800,0,-800,400,L,S,=,0.238792336436638,0.246537582136932,1.50319618818319,1.58085551211103,1.90052426358724,852737.852818357,852738.111237365,852738.111237365,852738.911116965,0.8,852740.441571842,852740.441571842,852742.041054226,1.6,852743.769552408,852744.246089987,0.476537579204887,66,Longer,Index,66,L,Index
207,Spatial,4132,1,2,56,800,5,5,1,m,m,-800,400,-800,0,=,L,S,0.444780481695849,0.288179484469435,1.00397068595901,1.38235324171307,1.57996053980951,852746.302883142,852746.761140531,852746.761140531,852749.161192594,2.4,852750.191584755,852750.191584755,852751.791414566,1.6,852753.319559385,852753.894196342,0.574636956560425,77,Shorter,Ring,77,S,Ring
207,Spatial,4132,1,2,57,1200,20,7.5,1,l,l,-1600,0,-1600,-400,L,S,=,0.349215513732337,0.336553248361778,1.37281335551971,1.26468102620207,1.90876127823181,852755.619619792,852755.981428746,852755.981428746,852756.781343955,0.8,852758.191455472,852758.191455472,852759.791289133,1.6,852761.202974411,852762.734097612,1.53112320089713,78,Shorter,Middle,78,S,Middle
207,Spatial,4132,1,2,58,800,7.5,3.33333333333333,1,l,l,-1600,-400,-1600,-800,S,=,L,0.404089796294297,0.357141174311098,1.50990238027829,1.89396349703588,1.13796922166058,852764.803055573,852765.221767076,852765.221767076,852766.821640196,1.6,852768.361945294,852768.361945294,852770.761412856,2.4,852772.80298628,852773.366083673,0.563097393140197,66,Shorter,Index,66,S,Index
207,Spatial,4132,1,2,59,400,2.5,5,2,l,l,-1600,-1200,-1600,-1200,L,S,=,0.30146025344731,0.436506371595869,1.5426912943049,1.7394311593347,1.57007360882171,852774.653039004,852774.971903497,852774.971903497,852776.57165792,1.6,852778.141922383,852778.141922383,852778.94168906,0.8,852780.819686262,852782.17430159,1.35461532813497,77,Equals to,Ring,77,=,Ring
207,Spatial,4132,1,2,60,1600,7.5,20,2,m,m,-800,400,-800,800,=,L,S,0.405763929210674,0.448098582784132,1.45468945260104,1.88304722138179,1.52456598485979,852783.886417218,852784.311803003,852784.311803003,852785.911629285,1.6,852787.392129861,852787.392129861,852788.191910333,0.8,852790.219748947,852790.710043247,0.490294300485402,78,Longer,Middle,66,=,Index
207,Spatial,4132,1,2,61,400,3.33333333333333,1.25,2,l,l,-1600,-800,-1600,-1200,L,S,=,0.320774164302142,0.473565567934463,1.42994750986796,1.46419803754805,1.92922546647155,852792.369807221,852792.702124218,852792.702124218,852795.101970327,2.4,852796.562270331,852796.562270331,852799.761841127,3.2,852801.369856079,852801.854365263,0.484509184258059,78,Shorter,Middle,77,=,Ring
207,Spatial,4132,1,2,62,800,1.25,3.33333333333333,1,l,l,-1600,-1200,-1600,-800,L,S,=,0.21542761478558,0.348129112660258,1.27989883995517,1.61546674484687,1.71228978153152,852803.936523579,852804.172350759,852804.172350759,852807.372189425,3.2,852808.682417681,852808.682417681,852811.082210216,2.4,852812.853192091,852813.286329767,0.433137676329352,66,Longer,Index,77,=,Ring
207,Spatial,4132,1,2,63,800,15,5,1,m,m,-800,400,-800,0,=,L,S,0.246390955216698,0.263077795723792,1.87183906103433,1.14241598046056,1.78724635277311,852815.136601919,852815.402061566,852815.402061566,852816.202041897,0.8,852818.10231779,852818.10231779,852819.702158188,1.6,852820.986613228,852821.57399022,0.587376992567442,77,Shorter,Ring,66,=,Index
207,Spatial,4132,1,2,64,1200,6.66666666666667,7.5,1,l,l,-1600,0,-1600,-400,S,=,L,0.256619336909916,0.43290648205035,1.25227155355671,1.2169752895606,1.95023076175079,852823.503302495,852823.772640635,852823.772640635,852826.172197701,2.4,852827.452551607,852827.452551607,852829.052346771,1.6,852830.419958815,852831.190136049,0.770177233382128,66,Shorter,Index,66,S,Index
207,Spatial,4132,1,2,65,1600,5,5,2,l,l,-1600,-400,-1600,0,L,S,=,0.408104515523535,0.415306803313343,1.97161484527301,1.87415392229037,1.66784829204602,852833.286665646,852833.712515632,852833.712515632,852836.112557108,2.4,852838.10264565,852838.10264565,852841.302533398,3.2,852843.320067311,852843.846377618,0.526310307090171,66,Longer,Index,66,L,Index
207,Spatial,4132,1,2,66,400,2.5,5,2,l,l,-1600,-1200,-1600,-1200,S,=,L,0.286119939164566,0.276367742428879,1.77555569578253,1.87868814843432,1.61381579761235,852845.670072299,852845.972864299,852845.972864299,852847.572650481,1.6,852849.372811815,852849.372811815,852850.172707455,0.8,852852.203403772,852852.829902197,0.626498425379395,78,Equals to,Middle,78,=,Middle
207,Spatial,4132,1,2,67,400,5,5,2,r,r,0,400,0,400,=,L,S,0.362153391679323,0.348945170832598,1.60646125060753,1.04907340681212,1.48504668517304,852854.586794384,852854.962821917,852854.962821917,852855.762801607,0.8,852857.393067244,852857.393067244,852858.192856057,0.8,852859.386765127,852859.958188932,0.571423805202357,66,Equals to,Index,66,=,Index
207,Spatial,4132,1,2,68,1200,10,5,1,l,l,-1600,0,-1600,-400,=,L,S,0.233302227482418,0.423080173349622,1.22867788610187,1.99453721948611,1.01204813899571,852861.586804329,852861.832957158,852861.832957158,852863.432743661,1.6,852864.693069586,852864.693069586,852867.092959644,2.4,852869.236835816,852869.614086602,0.377250785939395,77,Shorter,Ring,77,S,Ring
207,Spatial,4132,1,2,69,800,15,5,1,r,r,0,1200,0,800,L,S,=,0.357963788143268,0.30289896955602,1.22294556754231,1.49830176514864,1.7918403479128,852870.770190386,852871.143271354,852871.143271354,852871.943036107,0.8,852873.193200634,852873.193200634,852874.793062846,1.6,852876.436902831,852877.510068206,1.07316537422594,78,Shorter,Middle,77,=,Ring
207,Spatial,4132,1,2,70,400,5,5,2,m,m,-800,0,-800,-400,L,S,=,0.393135078907731,0.415147074328064,1.08274231720607,1.6461363259398,1.51229990930676,852879.436930469,852879.843308792,852879.843308792,852881.443117431,1.6,852882.553173353,852882.553173353,852883.352965694,0.8,852885.153527746,852886.638079693,1.48455194733106,78,Shorter,Middle,78,S,Middle
207,Spatial,4132,1,2,71,1200,20,7.5,1,l,l,-1600,0,-1600,-400,=,L,S,0.402841076432787,0.320433433272651,1.39278663128389,1.54685956770444,1.36047678866422,852888.286993506,852888.703533501,852888.703533501,852889.503005682,0.8,852890.923176904,852890.923176904,852892.523238655,1.6,852894.220338276,852894.7181297,0.497791423578747,77,Shorter,Ring,77,S,Ring
207,Spatial,4132,1,2,72,1200,6.66666666666667,7.5,1,l,l,-1600,0,-1600,-400,=,L,S,0.208576846445965,0.339637836371581,1.00460660096488,1.92948344550709,1.13922905776065,852896.220334731,852896.443577816,852896.443577816,852898.8433819,2.4,852899.873412517,852899.873412517,852901.473276654,1.6,852903.55368635,852903.95811611,0.404429760295898,77,Shorter,Ring,77,S,Ring
207,Spatial,4132,1,2,73,1200,20,7.5,1,r,r,0,1600,0,1200,S,=,L,0.346973392792591,0.352436616157183,1.52304851950694,1.77340538537907,1.71276831931603,852911.47040797,852911.83365394,852911.83365394,852912.633470662,0.8,852914.193358147,852914.193358147,852915.793350605,1.6,852917.703765155,852919.214047656,1.5102825013455,66,Shorter,Index,78,=,Middle
207,Spatial,4132,1,2,74,1200,5,5,1,m,m,-800,800,-800,400,S,=,L,0.224833818987071,0.228618430305713,1.50321012834785,1.73852658255721,1.76413210822049,852921.087120479,852921.323701223,852921.323701223,852924.523533151,3.2,852926.053728821,852926.053728821,852928.453614388,2.4,852930.337138043,852930.782187413,0.445049369824119,66,Shorter,Index,78,=,Middle
207,Spatial,4132,1,2,75,1600,10,20,2,r,r,0,1600,0,1600,L,S,=,0.454348976228308,0.297473067258372,1.59543546454018,1.71102361821611,1.896338846908,852932.703873907,852933.173930387,852933.173930387,852934.773694113,1.6,852936.3938978,852936.3938978,852937.193787024,0.8,852939.053885039,852940.877937462,1.82405242347158,77,Equals to,Ring,77,=,Ring
207,Spatial,4132,1,2,76,800,1.25,3.33333333333333,1,r,r,0,400,0,800,L,S,=,0.220316897537309,0.349826895970293,1.85154083068717,1.17953369560798,1.19611643149289,852942.920571387,852943.154210056,852943.154210056,852946.354041664,3.2,852948.234129817,852948.234129817,852950.633916577,2.4,852951.970574129,852952.526199085,0.555624955683015,66,Longer,Index,78,S,Middle
207,Spatial,4132,1,2,77,400,5,5,2,m,m,-800,0,-800,-400,L,S,=,0.260188326225258,0.393848235285124,1.15101316912357,1.41353137778661,1.68408233306377,852953.853983172,852954.134209344,852954.134209344,852955.733996168,1.6,852956.924413595,852956.924413595,852957.724221335,0.8,852959.287288323,852959.886038351,0.598750027595088,78,Shorter,Middle,78,S,Middle
207,Spatial,4132,1,2,78,1200,3.33333333333333,7.5,1,l,l,-1600,-800,-1600,-400,S,=,L,0.24671245544054,0.32625429234357,1.20157887509947,1.55967495988316,1.54337311189646,852961.720670129,852961.984248915,852961.984248915,852964.384194151,2.4,852965.624574221,852965.624574221,852967.224080022,1.6,852968.920665381,852969.493898509,0.573233127710409,77,Longer,Ring,66,S,Index
207,Spatial,4132,1,2,79,400,2.5,1.25,2,m,m,-800,0,-800,-400,S,=,L,0.43400162541413,0.253710459059715,1.93119527620379,1.91560214678529,1.84175313346092,852971.187370416,852971.634426045,852971.634426045,852974.834275939,3.2,852976.804723708,852976.804723708,852980.004465491,3.2,852982.070780726,852982.462088439,0.391307713463902,66,Shorter,Index,66,S,Index
207,Spatial,4132,1,2,80,1600,10,20,2,m,m,-800,800,-800,800,=,L,S,0.297995478025313,0.205127059630318,1.45829142346414,1.08625380660922,1.1300273845271,852984.454113947,852984.764681542,852984.764681542,852986.364350311,1.6,852987.864648531,852987.864648531,852988.664472632,0.8,852989.904108798,852990.414230578,0.510121779632755,66,Equals to,Index,66,=,Index
207,Spatial,4132,1,2,81,1200,5,5,1,l,l,-1600,0,-1600,-400,L,S,=,0.453765808345556,0.349610622242355,1.20654921465936,1.28899926318326,1.50894852061541,852991.704168403,852992.174726297,852992.174726297,852995.374512351,3.2,852996.604827263,852996.604827263,852999.00467305,2.4,853000.437547659,853001.374059128,0.936511469073594,78,Shorter,Middle,78,S,Middle
207,Spatial,4132,1,2,82,800,7.5,3.33333333333333,1,l,l,-1600,-400,-1600,-800,=,L,S,0.276516468959571,0.441552430564532,1.64686450635064,1.76834446462902,1.86584087415194,853003.020877143,853003.314727432,853003.314727432,853004.914619479,1.6,853006.594772049,853006.594772049,853008.994813526,2.4,853010.904219475,853011.574013959,0.669794484740123,77,Shorter,Ring,77,S,Ring
207,Spatial,4132,1,2,83,800,2.5,3.33333333333333,1,l,l,-1600,-1200,-1600,-800,S,=,L,0.276109203052004,0.438881163829927,1.10683364143977,1.38449023540826,1.25961001995886,853013.587588048,853013.875010752,853013.875010752,853015.474826127,1.6,853016.604917087,853016.604917087,853019.004771536,2.4,853020.537651406,853020.830049124,0.292397717945278,77,Longer,Ring,78,=,Middle
207,Spatial,4132,1,2,84,1200,10,5,1,l,l,-1600,0,-1600,-400,L,S,=,0.440044399001849,0.344597195767441,1.02062568974621,1.51241594393533,1.80222516645691,853022.23766573,853022.695083901,853022.695083901,853024.294867838,1.6,853025.33511856,853025.33511856,853027.735140147,2.4,853029.404321008,853030.574047964,1.16972695593722,78,Shorter,Middle,78,S,Middle
207,Spatial,4132,1,2,85,800,1.66666666666667,5,1,l,l,-1600,-1200,-1600,-800,=,L,S,0.289856382412245,0.393218169050253,1.53837267913198,1.74880990760708,1.13814631460344,853032.521047649,853032.825037523,853032.825037523,853035.225072583,2.4,853036.795390299,853036.795390299,853038.395151138,1.6,853040.287710498,853042.574194571,2.28648407268338,78,Longer,Middle,66,=,Index
207,Spatial,4132,1,2,86,1600,5,5,2,l,l,-1600,-400,-1600,0,L,S,=,0.248712282315082,0.420196444933293,1.69631229180231,1.06788189739651,1.27206996733743,853043.854465626,853044.115389182,853044.115389182,853046.515294318,2.4,853048.24537713,853048.24537713,853051.445357269,3.2,853052.654451815,853054.197975804,1.54352398903575,66,Longer,Index,66,L,Index
207,Spatial,4132,1,2,87,400,1.66666666666667,1.25,2,r,r,0,400,0,400,=,L,S,0.465323896257297,0.229752410837517,1.76261737017385,1.4875032978988,1.49983213759593,853055.621156433,853056.105708666,853056.105708666,853058.505585892,2.4,853060.295599622,853060.295599622,853063.49544342,3.2,853065.121204072,853065.870096744,0.748892672243528,66,Equals to,Index,66,=,Index
207,Spatial,4132,1,2,88,1200,20,7.5,1,l,l,-1600,0,-1600,-400,=,L,S,0.4962380549357,0.4604859252009,1.82375858288902,1.06973254723096,1.7404847266545,853067.521206125,853068.035956719,853068.035956719,853068.835427618,0.8,853070.695840352,853070.695840352,853072.295706735,1.6,853073.504107707,853074.270016031,0.765908323228359,77,Shorter,Ring,66,=,Index
207,Spatial,4132,1,2,89,1200,2.5,5,1,r,r,0,800,0,1200,=,L,S,0.279528316039711,0.275429216969714,1.48814929668611,1.83919697027232,1.72567541785,853076.154608206,853076.445782046,853076.445782046,853079.645612371,3.2,853081.155969333,853081.155969333,853083.555811592,2.4,853085.537975561,853086.630036228,1.09206066734623,78,Longer,Middle,66,=,Index
207,Spatial,4132,1,2,90,800,5,5,1,l,l,-1600,-1200,-1600,-800,=,L,S,0.365830435660782,0.470273029783293,1.36459227239707,1.6983501163094,1.63181280189769,853088.504666496,853088.885996611,853088.885996611,853089.68574789,0.8,853091.08619878,853091.08619878,853092.685957053,1.6,853094.537985024,853094.982222445,0.444237420335412,78,Longer,Middle,66,=,Index
207,Spatial,4132,1,2,91,1200,5,5,1,r,r,0,1600,0,1200,L,S,=,0.261287096038059,0.438283333683927,1.58842759727373,1.41016739365158,1.17780822538108,853096.771363238,853097.046229757,853097.046229757,853100.246062648,3.2,853101.85641836,853101.85641836,853104.255900037,2.4,853105.82142249,853106.438110747,0.61668825650122,78,Shorter,Middle,77,=,Ring
207,Spatial,4132,1,2,92,1600,5,5,2,l,l,-1600,0,-1600,0,L,S,=,0.367266300458097,0.237103938118021,1.45895848991358,1.69921137520775,1.46571842489789,853107.771418095,853108.156282436,853108.156282436,853111.356145482,3.2,853112.846279738,853112.846279738,853116.046219777,3.2,853117.888104956,853118.254151417,0.366046460461803,77,Equals to,Ring,77,=,Ring
207,Spatial,4132,1,2,93,800,5,5,1,r,r,0,400,0,800,S,=,L,0.32055711637757,0.31499549965669,1.7151297743909,1.68100789725057,1.57154764579099,853119.871470739,853120.20658577,853120.20658577,853121.006327746,0.8,853122.756614979,853122.756614979,853124.356405973,1.6,853126.188148361,853126.646102626,0.457954265875742,77,Longer,Ring,66,S,Index
207,Spatial,4132,1,2,94,800,2.5,3.33333333333333,1,r,r,0,400,0,800,S,=,L,0.467700252972219,0.235243898372772,1.67080637013612,1.14706406846237,1.73258791906729,853128.371521265,853128.856577157,853128.856577157,853130.45636366,1.6,853132.156686646,853132.156686646,853134.556480464,2.4,853135.854867318,853136.142001014,0.287133696372621,77,Longer,Ring,78,=,Middle
207,Spatial,4132,1,2,95,1200,5,5,1,m,m,-800,0,-800,400,L,S,=,0.405100735751966,0.289276785000044,1.86847040893989,1.51514463248543,1.05529231107462,853138.021567508,853138.446735148,853138.446735148,853140.04654507,1.6,853141.936879955,853141.936879955,853144.336642975,2.4,853146.004966157,853146.485975987,0.481009829672985,66,Longer,Index,66,L,Index
207,Spatial,4132,1,2,96,800,3.75,3.33333333333333,1,m,m,-800,400,-800,0,L,S,=,0.383054059960651,0.359298111074389,1.59711993179571,1.56820825310635,1.26495202026927,853147.688294807,853148.086781998,853148.086781998,853151.286633817,3.2,853152.916943724,853152.916943724,853155.316771867,2.4,853157.037858147,853157.349921355,0.312063208199106,78,Shorter,Middle,78,S,Middle
