Subject,Task,SequenceOrder,ListNo,RunNo,TrialNo,Aud_Probe_Dist,Aud_Standard_Vel,Aud_Probe_Vel,Main_Control,Aud_Std_StartCode,Aud_Probe_StartCode,Aud_Std_StartPt,Aud_Std_EndPt,Aud_Probe_StartPt,Aud_Probe_EndPt,RespIndex,RespMiddle,RespRing,ISI_Cross_Std,ISI_Cross_Probe,ISI_Std_Probe,ISI_Probe_Response,ITI,TrialOnset,StdOnset,StdOnsetByStop,StdOffset,StdDur,ProbeOnset,ProbeOnsetByStop,ProbeOffset,ProbeDur,RespWinStart,RespTime,RT,CorrectKC,CorrectResponse,CorrectFinger,SubjRespKC,SubjResponse,SubjRespFinger
217,Spatial,1243,3,4,1,400,3.33333333333333,1.25,2,r,r,0,800,0,400,=,L,S,0.234986143918937,0.378085852992457,1.58526516417596,1.15681183893525,1.46690701997058,181978.631498088,181978.877570944,181978.877570944,181981.278832806,2.4,181982.899002774,181982.899002774,181986.098926955,3.2,181987.398230281,181988.478634576,1.08040429532412,77,Shorter,Ring,66,=,Index
217,Spatial,1243,3,4,2,1600,6.66666666666667,5,2,m,m,-800,800,-800,800,S,=,L,0.290936380027155,0.327129091283698,1.10644631370414,1.37440028192354,1.40395953672633,181990.09829731,181990.409099701,181990.409099701,181992.809131608,2.4,181993.949182006,181993.949182006,181997.149114849,3.2,181998.664946846,181999.19873373,0.533786883432185,78,Equals to,Middle,78,=,Middle
217,Spatial,1243,3,4,3,800,1.66666666666667,5,1,m,m,-800,-400,-800,0,=,L,S,0.381072467319826,0.299594607162043,1.54045837175401,1.15507025006448,1.59653271191479,182000.748371448,182001.149301922,182001.149301922,182003.549227964,2.4,182005.11950293,182005.11950293,182006.719318873,1.6,182008.015003596,182008.742768317,0.727764721115818,78,Longer,Middle,78,L,Middle
217,Spatial,1243,3,4,4,400,5,5,2,m,m,-800,0,-800,-400,S,=,L,0.257122982260418,0.414971873423332,1.31205600243121,1.93500997062095,1.415629492614,182010.481763749,182010.759445493,182010.759445493,182012.359388795,1.6,182013.709453931,182013.709453931,182014.50933814,0.8,182016.598390343,182017.006835973,0.408445630135247,66,Shorter,Index,66,S,Index
217,Spatial,1243,3,4,5,400,2.5,5,2,m,m,-800,-400,-800,-400,=,L,S,0.231168742311159,0.379397406824969,1.03885679110909,1.42810198525318,1.99709459506637,182018.581774074,182018.829617437,182018.829617437,182020.429474122,1.6,182021.499888958,182021.499888958,182022.299666019,0.8,182023.881772535,182025.510790822,1.62901828764007,66,Equals to,Index,66,=,Index
217,Spatial,1243,3,4,6,1200,10,5,1,l,l,-1600,0,-1600,-400,S,=,L,0.202624033944046,0.468590751453483,1.14111075197321,1.47164590469305,1.58306321666086,182027.665151839,182027.879742133,182027.879742133,182029.47958791,1.6,182030.659886789,182030.659886789,182033.059697663,2.4,182034.681836759,182035.854607649,1.17277089014533,66,Shorter,Index,66,S,Index
217,Spatial,1243,3,4,7,1200,20,7.5,1,l,l,-1600,0,-1600,-400,=,L,S,0.370601457315072,0.417075279285149,1.89129417347417,1.13707650870975,1.675461732349,182037.598560047,182037.979924156,182037.979924156,182038.779796496,0.8,182040.71004966,182040.71004966,182042.309871378,1.6,182043.598585391,182045.174728425,1.57614303412265,77,Shorter,Ring,77,S,Ring
217,Spatial,1243,3,4,8,400,10,5,2,r,r,0,800,0,400,S,=,L,0.463840344734156,0.481788154052185,1.28276987952747,1.38159979610855,1.81777132942201,182046.998643648,182047.480108296,182047.480108296,182048.279977428,0.8,182049.600238119,182049.600238119,182050.400047261,0.8,182051.931957862,182052.462748453,0.530790591263212,66,Shorter,Index,78,=,Middle
217,Spatial,1243,3,4,9,1200,10,5,1,l,l,-1600,0,-1600,-400,L,S,=,0.338385689489364,0.365457882037862,1.76351897826754,1.08635332169096,1.43714422267825,182054.432043837,182054.790146902,182054.790146902,182056.389983376,1.6,182058.180206077,182058.180206077,182060.580072771,2.4,182061.815337295,182062.566806729,0.751469434297178,78,Shorter,Middle,78,S,Middle
217,Spatial,1243,3,4,10,400,1.66666666666667,1.25,2,l,l,-1600,-1200,-1600,-1200,L,S,=,0.332832869929139,0.285481490763312,1.54273239944773,1.98594539903152,1.74049492931811,182064.148764254,182064.50003781,182064.50003781,182066.900062338,2.4,182068.470463059,182068.470463059,182071.670409376,3.2,182073.798742199,182074.270765684,0.472023485286627,77,Equals to,Ring,77,=,Ring
217,Spatial,1243,3,4,11,1200,10,7.5,1,m,m,-800,0,-800,400,S,=,L,0.314683347682982,0.209840476278081,1.27127074855712,1.18362208766083,1.95215242757332,182076.165503117,182076.490650497,182076.490650497,182077.290208772,0.8,182078.580292565,182078.580292565,182080.180285591,1.6,182081.515471005,182082.334814156,0.819343151175417,77,Longer,Ring,77,L,Ring
217,Spatial,1243,3,4,12,800,7.5,3.33333333333333,1,m,m,-800,400,-800,0,S,=,L,0.362589317809082,0.237514093590123,1.31804611605299,1.92079133236631,1.49789430690232,182084.432194293,182084.810367383,182084.810367383,182086.410315175,1.6,182087.760675128,182087.760675128,182090.160569411,2.4,182092.232194357,182092.742849159,0.510654802114004,66,Shorter,Index,66,S,Index
217,Spatial,1243,3,4,13,800,7.5,3.33333333333333,1,l,l,-1600,-400,-1600,-800,L,S,=,0.231029534697761,0.241435686391845,1.42227428700697,1.51748926167871,1.76351500814628,182094.398921656,182094.640928665,182094.640928665,182096.240430542,1.6,182097.690683155,182097.690683155,182100.090743934,2.4,182101.748914566,182102.83873115,1.08981658457196,78,Shorter,Middle,66,L,Index
217,Spatial,1243,3,4,14,800,1.25,3.33333333333333,1,l,l,-1600,-1200,-1600,-800,L,S,=,0.213148038916728,0.350768494503998,1.45753247590008,1.87373185768824,1.01097892566448,182104.765627717,182104.991089996,182104.991089996,182108.190656804,3.2,182109.671060328,182109.671060328,182112.070709518,2.4,182114.082322646,182114.534909691,0.452587044856045,66,Longer,Index,77,=,Ring
217,Spatial,1243,3,4,15,1200,3.33333333333333,7.5,1,m,m,-800,0,-800,400,S,=,L,0.400806890233582,0.380929557199569,1.12265372419346,1.71772306591967,1.13774705640939,182115.699034642,182116.111078344,182116.111078344,182118.511011124,2.4,182119.671156569,182119.671156569,182121.27098791,1.6,182123.132441763,182123.598932178,0.466490414692089,77,Longer,Ring,77,L,Ring
217,Spatial,1243,3,4,16,1600,3.75,5,2,r,r,0,1200,0,1600,L,S,=,0.272735030708309,0.304705327833458,1.00086667641551,1.42375123336351,1.40050615588343,182124.882441086,182125.171166193,182125.171166193,182128.371030384,3.2,182129.401283998,182129.401283998,182132.601169362,3.2,182134.165786706,182134.710826367,0.545039660762995,66,Longer,Index,66,L,Index
217,Spatial,1243,3,4,17,800,5,5,1,m,m,-800,-400,-800,0,=,L,S,0.460343092899084,0.487009538038042,1.42341921211685,1.58514730404049,1.16905343114937,182136.265849391,182136.741512974,182136.741512974,182137.541068361,0.8,182138.991559329,182138.991559329,182140.591387463,1.6,182142.315896696,182143.302918722,0.987022025772603,78,Longer,Middle,78,L,Middle
217,Spatial,1243,3,4,18,800,15,5,1,l,l,-1600,-400,-1600,-800,S,=,L,0.245698118322778,0.355888517310885,1.47860023457902,1.15517514382045,1.80370581122038,182144.615844868,182144.881306364,182144.881306364,182145.681350975,0.8,182147.191400147,182147.191400147,182148.79141178,1.6,182150.082523468,182150.59875317,0.516229702043347,66,Shorter,Index,66,S,Index
217,Spatial,1243,3,4,19,1600,15,20,2,m,m,-800,400,-800,800,S,=,L,0.4061807985448,0.444994610802925,1.33833357666697,1.4839602000452,1.26853259463148,182152.549267192,182152.971510799,182152.971510799,182153.771498307,0.8,182155.131467888,182155.131467888,182155.931537842,0.8,182157.565999241,182158.006621357,0.440622115915176,77,Longer,Ring,77,L,Ring
217,Spatial,1243,3,4,20,800,5,5,1,l,l,-1600,-400,-1600,-800,L,S,=,0.349228098244216,0.337801550316673,1.36895847282645,1.06054962694249,1.31075380172086,182159.432689291,182159.801670436,182159.801670436,182162.201690473,2.4,182163.601540575,182163.601540575,182165.201567285,1.6,182166.415988331,182166.958814456,0.54282612586394,78,Shorter,Middle,78,S,Middle
217,Spatial,1243,3,4,21,800,15,5,1,m,m,-800,400,-800,0,L,S,=,0.383855573070687,0.439144905380708,1.94391338512792,1.20625005733678,1.66269527190934,182168.416076872,182168.81155403,182168.81155403,182169.611590941,0.8,182171.591641904,182171.591641904,182173.191666048,1.6,182174.532771099,182174.902665738,0.369894638890401,78,Shorter,Middle,78,S,Middle
217,Spatial,1243,3,4,22,800,1.66666666666667,5,1,m,m,-800,-400,-800,0,S,=,L,0.204613163663663,0.20669325102098,1.37842465624746,1.27689222974172,1.24042203666197,182176.716087843,182176.93182308,182176.93182308,182179.331920431,2.4,182180.741987761,182180.741987761,182182.34200613,1.6,182183.766094484,182185.126666808,1.36057232390158,77,Longer,Ring,77,L,Ring
217,Spatial,1243,3,4,23,1200,5,5,1,r,r,0,800,0,1200,L,S,=,0.498982700171487,0.476456865266521,1.07595273083321,1.91426892814636,1.51717757811319,182186.516112609,182187.031947359,182187.031947359,182188.631999412,1.6,182189.74204326,182189.74204326,182192.142007798,2.4,182194.199504617,182194.758877398,0.559372780437116,66,Longer,Index,66,L,Index
217,Spatial,1243,3,4,24,800,3.75,3.33333333333333,1,l,l,-1600,-400,-1600,-800,S,=,L,0.245937298355438,0.492091461751766,1.92392274360129,1.17535027595309,1.14734977462313,182196.432910644,182196.692386293,182196.692386293,182199.892248881,3.2,182201.842278857,182201.842278857,182204.242304027,2.4,182205.549579011,182206.806990022,1.25741101108724,66,Shorter,Index,78,=,Middle
217,Spatial,1243,3,4,25,1200,2.5,5,1,r,r,0,800,0,1200,=,L,S,0.391003200900818,0.371034990454543,1.91489309993758,1.71428430675729,1.64416992887548,182209.632885237,182210.042174211,182210.042174211,182213.242261681,3.2,182215.182372133,182215.182372133,182217.582408211,2.4,182219.449669991,182220.16668399,0.717013999179471,78,Longer,Middle,78,L,Middle
217,Spatial,1243,3,4,26,400,10,5,2,r,r,0,800,0,400,=,L,S,0.305956820028496,0.23141361023229,1.78519351878071,1.41874215765485,1.17587060746943,182221.949738915,182222.272479364,182222.272479364,182223.072458532,0.8,182224.882493011,182224.882493011,182225.682465762,0.8,182227.249697323,182227.982834197,0.733136874099728,77,Shorter,Ring,66,=,Index
217,Spatial,1243,3,4,27,1200,5,5,1,r,r,0,800,0,1200,S,=,L,0.337061871213035,0.282279777955713,1.1725593920081,1.54298136732441,1.49020774667738,182229.299792826,182229.652623186,182229.652623186,182231.252600493,1.6,182232.452878609,182232.452878609,182234.852720601,2.4,182236.533141161,182237.022905916,0.489764755067881,77,Longer,Ring,77,L,Ring
217,Spatial,1243,3,4,28,800,15,5,1,l,l,-1600,-400,-1600,-800,S,=,L,0.232192050582329,0.389141236950711,1.05033891253926,1.34526963748701,1.55337895805033,182238.666506266,182238.912749788,182238.912749788,182239.712665115,0.8,182240.803016522,182240.803016522,182242.402860054,1.6,182243.899787501,182244.742992558,0.843205057375599,66,Shorter,Index,66,S,Index
217,Spatial,1243,3,4,29,800,15,5,1,m,m,-800,400,-800,0,L,S,=,0.443975275975812,0.371768509064359,1.32724771443568,1.54872660992681,1.54398959731415,182246.449880437,182246.912916284,182246.912916284,182247.712756544,0.8,182249.072753714,182249.072753714,182250.672792615,1.6,182252.366581513,182252.846845199,0.480263686680701,78,Shorter,Middle,78,S,Middle
217,Spatial,1243,3,4,30,800,2.5,3.33333333333333,1,m,m,-800,-400,-800,0,L,S,=,0.324772109228758,0.299127404075893,1.38149040352511,1.00271572437884,1.37856750277626,182254.549938568,182254.893193688,182254.893193688,182256.49306898,1.6,182257.913231312,182257.913231312,182260.312933434,2.4,182261.466568565,182263.158827224,1.69225865893532,66,Longer,Index,66,L,Index
217,Spatial,1243,3,4,31,800,3.75,3.33333333333333,1,r,r,0,1200,0,800,S,=,L,0.391002678049885,0.452373601046283,1.658356341968,1.08272685573686,1.94372111929278,182264.699972026,182265.103075935,182265.103075935,182268.302986642,3.2,182269.993390147,182269.993390147,182272.393274806,2.4,182273.633311583,182274.054775044,0.421463460981613,66,Shorter,Index,78,=,Middle
217,Spatial,1243,3,4,32,800,3.75,3.33333333333333,1,r,r,0,1200,0,800,L,S,=,0.496302486473328,0.467530631386794,1.92933753160437,1.35358751874502,1.78083376652866,182276.166702276,182276.673142013,182276.673142013,182279.87321216,3.2,182281.823382647,182281.823382647,182284.223249662,2.4,182285.7167102,182286.174719122,0.458008922141744,78,Shorter,Middle,77,=,Ring
217,Spatial,1243,3,4,33,800,1.66666666666667,5,1,m,m,-800,-400,-800,0,=,L,S,0.498601155130636,0.334896306612231,1.78173379116576,1.26543940115152,1.82898422884209,182288.133445037,182288.643324736,182288.643324736,182291.043270347,2.4,182292.863421323,182292.863421323,182294.463422369,1.6,182295.883513867,182297.326860829,1.44334696154692,78,Longer,Middle,77,S,Ring
217,Spatial,1243,3,4,34,1600,5,5,2,r,r,0,1200,0,1600,S,=,L,0.353308416557644,0.393466062628859,1.03745740464158,1.43551119733684,1.02189257255287,182299.316850839,182299.683690951,182299.683690951,182302.083622447,2.4,182303.153772941,182303.153772941,182306.353586767,3.2,182307.933519206,182308.374926296,0.441407089616405,77,Longer,Ring,77,L,Ring
217,Spatial,1243,3,4,35,1200,10,5,1,l,l,-1600,0,-1600,-400,S,=,L,0.354475052653373,0.390209474586305,1.51987877545953,1.73413058080142,1.76998508136992,182309.583616073,182309.953963562,182309.953963562,182311.553886332,1.6,182313.104099293,182313.104099293,182315.503963421,2.4,182317.383641259,182317.798919603,0.415278343309183,66,Shorter,Index,66,S,Index
217,Spatial,1243,3,4,36,1200,6.66666666666667,7.5,1,l,l,-1600,0,-1600,-400,=,L,S,0.389091637938527,0.411325252172444,1.17068428478151,1.23155936194885,1.93299525767914,182319.717000205,182320.124172847,182320.124172847,182322.52402703,2.4,182323.724167842,182323.724167842,182325.324020998,1.6,182326.700293149,182327.838940313,1.13864716445096,77,Shorter,Ring,77,S,Ring
217,Spatial,1243,3,4,37,800,5,5,1,m,m,-800,-400,-800,0,S,=,L,0.426145468011107,0.45694762549948,1.85907888030007,1.6114178636113,1.42791345382662,182329.933700139,182330.37428593,182330.37428593,182331.174102771,0.8,182333.054225786,182333.054225786,182334.654090491,1.6,182336.417096352,182338.318799392,1.90170303956256,77,Longer,Ring,77,L,Ring
217,Spatial,1243,3,4,38,1600,10,20,2,m,m,-800,800,-800,800,S,=,L,0.246570693008897,0.480138936857777,1.15170512612077,1.40682109728408,1.85270832652765,182339.88379423,182340.144256987,182340.144256987,182341.74414896,1.6,182342.934365437,182342.934365437,182343.734263762,0.8,182345.28374566,182345.750746667,0.467001006676583,78,Equals to,Middle,78,=,Middle
217,Spatial,1243,3,4,39,1600,6.66666666666667,5,2,m,m,-800,800,-800,800,L,S,=,0.464041143568221,0.424661591970453,1.19729819932783,1.37994839407473,1.36371300595864,182347.75049997,182348.23431674,182348.23431674,182350.634166431,2.4,182351.864418376,182351.864418376,182355.064313044,3.2,182356.600550227,182357.18290086,0.582350633048918,77,Equals to,Ring,77,=,Ring
217,Spatial,1243,3,4,40,1200,5,5,1,l,l,-1600,-800,-1600,-400,=,L,S,0.403455358872181,0.439102930226913,1.36858376043762,1.73531116215486,1.56960242644165,182358.70054947,182359.11464374,182359.11464374,182360.714449096,1.6,182362.114625454,182362.114625454,182364.514492148,2.4,182366.400557426,182366.95894791,0.558390484249685,78,Longer,Middle,78,L,Middle
217,Spatial,1243,3,4,41,1200,3.33333333333333,7.5,1,l,l,-1600,-800,-1600,-400,=,L,S,0.408569899073832,0.390709128362304,1.08559522817739,1.30113078666865,1.614604283831,182368.683962715,182369.104642091,182369.104642091,182371.504678489,2.4,182372.614849374,182372.614849374,182374.21469868,1.6,182375.667294477,182376.646914557,0.979620080412133,78,Longer,Middle,66,=,Index
217,Spatial,1243,3,4,42,800,7.5,3.33333333333333,1,r,r,0,1200,0,800,S,=,L,0.374244873480161,0.488067226639216,1.65638736189374,1.59196959793009,1.8976140137545,182378.417358749,182378.804877816,182378.804877816,182380.404776205,1.6,182382.084833199,182382.084833199,182384.48476277,2.4,182386.217327744,182386.838880323,0.621552579803392,66,Shorter,Index,78,=,Middle
217,Spatial,1243,3,4,43,1200,10,7.5,1,m,m,-800,0,-800,400,=,L,S,0.436329673416627,0.24167881349615,1.61336149450055,1.62345790682805,1.87805713097997,182388.900740925,182389.354927123,182389.354927123,182390.154922651,0.8,182391.795260488,182391.795260488,182393.395101775,1.6,182395.167450084,182395.734882359,0.567432274401654,78,Longer,Middle,78,L,Middle
217,Spatial,1243,3,4,44,800,2.5,3.33333333333333,1,l,l,-1600,-1200,-1600,-800,S,=,L,0.327065844300023,0.219032701489149,1.37303711370396,1.63960601818864,1.16228671329128,182397.767425171,182398.10500556,182398.10500556,182399.705062746,1.6,182401.105083835,182401.105083835,182403.505041637,2.4,182405.284116508,182405.798912545,0.514796037197812,77,Longer,Ring,77,L,Ring
217,Spatial,1243,3,4,45,1200,6.66666666666667,7.5,1,r,r,0,1600,0,1200,S,=,L,0.34488059582587,0.430361143343792,1.69692243593658,1.84028808065304,1.0936036497739,182407.117487375,182407.475128164,182407.475128164,182409.875201775,2.4,182411.595283329,182411.595283329,182413.195132956,1.6,182415.184232064,182416.255034829,1.07080276563647,66,Shorter,Index,78,=,Middle
217,Spatial,1243,3,4,46,800,3.75,3.33333333333333,1,l,l,-1600,-400,-1600,-800,=,L,S,0.258441827819698,0.443230910776854,1.39366426868202,1.88131815954932,1.67081069626191,182417.517547557,182417.795466443,182417.795466443,182420.995377472,3.2,182422.425436872,182422.425436872,182424.825305169,2.4,182426.85092067,182427.398981325,0.548060654720757,77,Shorter,Ring,66,=,Index
217,Spatial,1243,3,4,47,1200,5,5,1,r,r,0,1600,0,1200,S,=,L,0.260787499639903,0.331866131097866,1.68043678963831,1.13483595476011,1.89082386011787,182429.217666511,182429.495784294,182429.495784294,182432.695633087,3.2,182434.415786501,182434.415786501,182436.815665385,2.4,182438.101055778,182440.014942965,1.91388718679082,66,Shorter,Index,66,S,Index
217,Spatial,1243,3,4,48,1200,20,7.5,1,r,r,0,1600,0,1200,L,S,=,0.439213744305264,0.462365942712718,1.61827275573558,1.96096339090775,1.28715634711151,182442.051084215,182442.505904319,182442.505904319,182443.30576511,0.8,182444.955975633,182444.955975633,182446.555812428,1.6,182448.667712161,182451.007039041,2.33932688005734,78,Shorter,Middle,78,S,Middle
217,Spatial,1243,3,4,49,1200,3.33333333333333,7.5,1,l,l,-1600,-800,-1600,-400,=,L,S,0.39573740353291,0.241822733146482,1.67763103617812,1.65469135245693,1.19673369247476,182457.001176061,182457.415876005,182457.415876005,182459.815865566,2.4,182461.526230023,182461.526230023,182463.126026397,1.6,182464.917830697,182465.510966622,0.593135924515082,78,Longer,Middle,77,S,Ring
217,Spatial,1243,3,4,50,800,5,5,1,r,r,0,1200,0,800,L,S,=,0.318949672611839,0.264942750623653,1.98751820919094,1.94928047555975,1.11046425119727,182466.867853571,182467.206100265,182467.206100265,182469.606005134,2.4,182471.61603955,182471.61603955,182473.216092245,1.6,182475.317916223,182475.751067148,0.433150925207883,78,Shorter,Middle,77,=,Ring
217,Spatial,1243,3,4,51,1600,3.75,5,2,l,l,-1600,-400,-1600,0,=,L,S,0.386878463533737,0.322542954978743,1.99684664094417,1.87697501534892,1.9559850039186,182477.01793252,182477.416465639,182477.416465639,182480.616331756,3.2,182482.646284457,182482.646284457,182485.846315465,3.2,182487.884691211,182488.870817782,0.986126571107889,78,Longer,Middle,78,L,Middle
217,Spatial,1243,3,4,52,1200,2.5,5,1,r,r,0,800,0,1200,L,S,=,0.330857931740687,0.377551939362652,1.21651694911103,1.58959920617807,1.08895512752033,182490.96805319,182491.316542183,182491.316542183,182494.516471497,3.2,182495.766764916,182495.766764916,182498.166630326,2.4,182499.901367772,182500.470907735,0.569539963296847,66,Longer,Index,66,L,Index
217,Spatial,1243,3,4,53,1600,5,5,2,m,m,-800,800,-800,800,S,=,L,0.285585994515586,0.422614402339293,1.60257244494214,1.73640570042668,1.67862184355676,182501.718039068,182502.016518379,182502.016518379,182505.216420746,3.2,182506.856720728,182506.856720728,182510.056678594,3.2,182511.93483854,182512.327048498,0.392209957906744,78,Equals to,Middle,78,=,Middle
217,Spatial,1243,3,4,54,800,5,5,1,r,r,0,400,0,800,L,S,=,0.495571820315659,0.458117099302278,1.07035550977299,1.2715541276353,1.50695596578108,182514.168150056,182514.676902135,182514.676902135,182515.476758435,0.8,182516.566936609,182516.566936609,182518.166817033,1.6,182519.584812712,182520.182826755,0.598014042159775,66,Longer,Index,66,L,Index
217,Spatial,1243,3,4,55,1200,5,5,1,r,r,0,800,0,1200,L,S,=,0.313256168385748,0.226058810801365,1.63753537764542,1.94704687817816,1.09236147378363,182521.83490751,182522.167006351,182522.167006351,182523.766849562,1.6,182525.437080065,182525.437080065,182527.836915641,2.4,182529.934942303,182530.391060078,0.456117774709128,66,Longer,Index,66,L,Index
217,Spatial,1243,3,4,56,800,1.66666666666667,5,1,r,r,0,400,0,800,L,S,=,0.318574172746093,0.238679162764073,1.41040234981082,1.0989149502249,1.4006660300081,182531.634924636,182531.967245413,182531.967245413,182534.367115957,2.4,182535.806958218,182535.806958218,182537.406911464,1.6,182538.651602118,182539.502992122,0.851390003663255,66,Longer,Index,77,=,Ring
217,Spatial,1243,3,4,57,800,5,5,1,r,r,0,1200,0,800,L,S,=,0.367557437166617,0.443874916262564,1.0690908039687,1.16422834135902,1.89834534137257,182541.051427794,182541.437233729,182541.437233729,182543.837079892,2.4,182544.937058571,182544.937058571,182546.537068279,1.6,182547.851663648,182548.343011293,0.491347644972848,78,Shorter,Middle,77,=,Ring
217,Spatial,1243,3,4,58,800,1.25,3.33333333333333,1,m,m,-800,-400,-800,0,L,S,=,0.276836466475739,0.210774467272466,1.61441125743336,1.435570539618,1.08052280301647,182550.40174279,182550.697501805,182550.697501805,182553.897360543,3.2,182555.54734875,182555.54734875,182557.947233729,2.4,182559.53506913,182561.87100096,2.33593183080666,66,Longer,Index,66,L,Index
217,Spatial,1243,3,4,59,1200,6.66666666666667,7.5,1,r,r,0,1600,0,1200,S,=,L,0.479512397127701,0.350904062263405,1.96610599866748,1.59863948991221,1.884470156704,182563.101801753,182563.597737787,182563.597737787,182565.997370295,2.4,182567.997549027,182567.997549027,182569.597442604,1.6,182571.351867697,182571.774995781,0.423128084657947,66,Shorter,Index,78,=,Middle
217,Spatial,1243,3,4,60,1200,5,5,1,m,m,-800,800,-800,400,L,S,=,0.217993216171088,0.340808594659909,1.96672273728807,1.43163944067625,1.93541915793748,182573.818558469,182574.047734996,182574.047734996,182577.247525403,3.2,182579.247711192,182579.247711192,182581.647577886,2.4,182583.235212143,182583.679043535,0.443831391516142,78,Shorter,Middle,77,=,Ring
217,Spatial,1243,3,4,61,1600,5,5,2,r,r,0,1200,0,1600,=,L,S,0.277986278788162,0.407532078026612,1.55449532467542,1.66970375523957,1.19322582273694,182585.768607327,182586.057833527,182586.057833527,182588.457683218,2.4,182590.038130821,182590.038130821,182593.237976085,3.2,182595.052007038,182596.422997537,1.37099049906828,78,Longer,Middle,78,L,Middle
217,Spatial,1243,3,4,62,400,5,5,2,r,r,0,800,0,400,L,S,=,0.392039328061549,0.275841579875701,1.99927968775249,1.8493521492668,1.22448395303494,182597.752039035,182598.157929575,182598.157929575,182599.757911373,1.6,182601.788157608,182601.788157608,182602.588042138,0.8,182604.58533979,182605.29506324,0.709723449283047,78,Shorter,Middle,78,S,Middle
217,Spatial,1243,3,4,63,1600,10,20,2,m,m,-800,800,-800,800,L,S,=,0.3920102824389,0.262707024244235,1.80226584932835,1.98612784887489,1.07217544205689,182606.668744181,182607.078244243,182607.078244243,182608.678108948,1.6,182610.498206029,182610.498206029,182611.298055272,0.8,182613.435463975,182614.519122054,1.08365807888913,77,Equals to,Ring,66,L,Index
217,Spatial,1243,3,4,64,1600,20,20,2,r,r,0,1600,0,1600,=,L,S,0.309555582371913,0.254940730656848,1.39271414208543,1.5524017776955,1.01503994691148,182615.735231391,182616.058419632,182616.058419632,182616.858277857,0.8,182618.278275939,182618.278275939,182619.078167206,0.8,182620.768775107,182621.223090954,0.454315847688122,66,Equals to,Index,66,=,Index
217,Spatial,1243,3,4,65,1200,6.66666666666667,7.5,1,l,l,-1600,0,-1600,-400,L,S,=,0.206168464136347,0.323758644928177,1.56464359763858,1.15315656666493,1.27868664687,182622.385493198,182622.608257531,182622.608257531,182625.008184857,2.4,182626.598511241,182626.598511241,182628.198442031,1.6,182629.502221061,182630.039195287,0.536974225833546,78,Shorter,Middle,78,S,Middle
217,Spatial,1243,3,4,66,1200,2.5,5,1,m,m,-800,0,-800,400,=,L,S,0.245309775063908,0.444002383696237,1.69260704618857,1.91491648827402,1.23909695971436,182631.468859734,182631.728507975,182631.728507975,182634.928398151,3.2,182636.638462017,182636.638462017,182639.038447087,2.4,182641.102254726,182642.206922205,1.10466747893952,78,Longer,Middle,66,=,Index
217,Spatial,1243,3,4,67,400,5,5,2,m,m,-800,-400,-800,-400,S,=,L,0.363339021255235,0.400324739239938,1.12188781580937,1.63670005852432,1.03432654163867,182643.602322736,182643.97879782,182643.97879782,182644.778677538,0.8,182645.918715425,182645.918715425,182646.718520396,0.8,182648.502278979,182648.999105924,0.496826945862267,78,Equals to,Middle,78,=,Middle
217,Spatial,1243,3,4,68,1600,7.5,20,2,l,l,-1600,-400,-1600,0,=,L,S,0.422782353516015,0.349714924696879,1.92070159997633,1.02933060687672,1.97779703123383,182650.185646926,182650.628763526,182650.628763526,182652.228607699,1.6,182654.188803254,182654.188803254,182654.988712807,0.8,182656.168988633,182657.615053449,1.44606481614755,78,Longer,Middle,78,L,Middle
217,Spatial,1243,3,4,69,800,2.5,3.33333333333333,1,l,l,-1600,-1200,-1600,-800,=,L,S,0.468609988423479,0.351816513651154,1.68641612682647,1.43224728750677,1.95373514268978,182659.752372813,182660.239048251,182660.239048251,182661.838893066,1.6,182663.549054455,182663.549054455,182665.949048186,2.4,182667.535791676,182668.039016279,0.503224603366107,78,Longer,Middle,78,L,Middle
217,Spatial,1243,3,4,70,1200,10,7.5,1,l,l,-1600,-800,-1600,-400,=,L,S,0.485000183366206,0.464662450671106,1.84681643399983,1.90115317635683,1.49342513878985,182670.135809349,182670.63919537,182670.63919537,182671.438997776,0.8,182673.318992469,182673.318992469,182674.919026558,1.6,182676.969115414,182677.655074481,0.685959066933719,78,Longer,Middle,78,L,Middle
217,Spatial,1243,3,4,71,1200,10,5,1,l,l,-1600,0,-1600,-400,L,S,=,0.31210512785187,0.336972596586197,1.88552323688316,1.51366924582591,1.9833279279571,182679.285779373,182679.61927099,182679.61927099,182681.219235785,1.6,182683.139390418,182683.139390418,182685.539318706,2.4,182687.202585941,182687.727108039,0.524522098363377,78,Shorter,Middle,78,S,Middle
217,Spatial,1243,3,4,72,1600,5,5,2,m,m,-800,800,-800,800,=,L,S,0.226495929088673,0.42163781772459,1.02140759735638,1.35951085379719,1.86654661433344,182689.869225962,182690.109271266,182690.109271266,182693.309159197,3.2,182694.359478985,182694.359478985,182697.559378786,3.2,182699.052583644,182699.70306905,0.650485405756626,66,Equals to,Index,66,=,Index
217,Spatial,1243,3,4,73,1600,15,20,2,r,r,0,1200,0,1600,=,L,S,0.253488597562464,0.25903142367315,1.91689356686849,1.54430101505924,1.76579423836986,182703.436007027,182703.709631013,182703.709631013,182704.509646752,0.8,182706.449502487,182706.449502487,182707.249473634,0.8,182708.952659546,182710.030923083,1.07826353641576,78,Longer,Middle,77,S,Ring
217,Spatial,1243,3,4,74,1200,20,7.5,1,r,r,0,1600,0,1200,S,=,L,0.4986651608216,0.20877118098123,1.15284189556034,1.38905501493707,1.86304843668293,182711.969382321,182712.479607845,182712.479607845,182713.279487243,0.8,182714.469676773,182714.469676773,182716.069647663,1.6,182717.602698395,182718.15112284,0.548424444335978,66,Shorter,Index,77,L,Ring
217,Spatial,1243,3,4,75,1200,10,7.5,1,l,l,-1600,-800,-1600,-400,S,=,L,0.496363371807555,0.250644030993415,1.3648569263823,1.42041631417008,1.32782173507068,182720.152737295,182720.669703656,182720.669703656,182721.469706241,0.8,182722.870036905,182722.870036905,182724.469908668,1.6,182726.036119757,182726.471119465,0.434999708086252,77,Longer,Ring,77,L,Ring
217,Spatial,1243,3,4,76,1200,5,5,1,m,m,-800,800,-800,400,=,L,S,0.366306439146343,0.276010531876348,1.45999264587556,1.27086313192669,1.55506197868747,182727.952794283,182728.330185898,182728.330185898,182731.530032446,3.2,182733.030066496,182733.030066496,182735.429966232,2.4,182736.852819177,182737.399236363,0.546417185250903,77,Shorter,Ring,66,=,Index
217,Spatial,1243,3,4,77,400,2.5,1.25,2,m,m,-800,0,-800,-400,=,L,S,0.405448076582125,0.243473470167331,1.13242436195834,1.24359775759011,1.1414637381812,182739.10289268,182739.520288767,182739.520288767,182742.720175415,3.2,182743.880165271,182743.880165271,182747.080197242,3.2,182748.486290715,182749.031129038,0.544838322064606,77,Shorter,Ring,77,S,Ring
217,Spatial,1243,3,4,78,400,5,5,2,r,r,0,400,0,400,=,L,S,0.298932463704329,0.339447753004273,1.82586308471723,1.85942354462136,1.05269261012023,182750.319644384,182750.630444529,182750.630444529,182751.430239556,0.8,182753.290289979,182753.290289979,182754.090302831,0.8,182756.086268192,182757.303058592,1.21679040006711,66,Equals to,Index,66,=,Index
217,Spatial,1243,3,4,79,400,1.25,1.25,2,r,r,0,400,0,400,=,L,S,0.352147529722476,0.406297015541779,1.78363922510642,1.60402289547254,1.67388137102517,182758.503024202,182758.87045491,182758.87045491,182762.070363693,3.2,182763.880425762,182763.880425762,182767.08032428,3.2,182768.836414096,182769.423097306,0.586683209927287,66,Equals to,Index,66,=,Index
217,Spatial,1243,3,4,80,1200,3.33333333333333,7.5,1,l,l,-1600,-800,-1600,-400,L,S,=,0.359634520109169,0.207214866348669,1.32618132061568,1.60495471302933,1.77101386923731,182771.236434079,182771.610576931,182771.610576931,182774.010405449,2.4,182775.360690655,182775.360690655,182776.960535791,1.6,182778.703086694,182779.127149936,0.424063241662225,66,Longer,Index,78,S,Middle
217,Spatial,1243,3,4,81,400,3.33333333333333,1.25,2,r,r,0,800,0,400,L,S,=,0.394020865084987,0.218960960903311,1.65507273596287,1.86977695795913,1.92538732332337,182781.053167504,182781.46067731,182781.46067731,182783.860591482,2.4,182785.540658421,182785.540658421,182788.740602171,3.2,182790.753218193,182791.175135844,0.421917650208343,78,Shorter,Middle,77,=,Ring
217,Spatial,1243,3,4,82,1200,20,7.5,1,m,m,-800,800,-800,400,=,L,S,0.264014320264337,0.230259729035499,1.99691487916296,1.393043912866,1.35236488843421,182793.253239941,182793.530719007,182793.530719007,182794.330702987,0.8,182796.360880891,182796.360880891,182797.960949626,1.6,182799.486540745,182801.647154517,2.16061377152801,77,Shorter,Ring,77,S,Ring
217,Spatial,1243,3,4,83,800,1.25,3.33333333333333,1,m,m,-800,-400,-800,0,S,=,L,0.289401745524004,0.348303061222842,1.95238813226005,1.18172054439606,1.32161870434861,182803.153284405,182803.461095956,182803.461095956,182806.660966243,3.2,182808.641191401,182808.641191401,182811.041072211,2.4,182812.37002303,182813.711138508,1.34111547717475,77,Longer,Ring,78,=,Middle
217,Spatial,1243,3,4,84,400,2.5,1.25,2,m,m,-800,0,-800,-400,S,=,L,0.219922186319363,0.439410533212523,1.76275724010482,1.46404039568685,1.21663966323931,182815.220011575,182815.451223591,182815.451223591,182818.65113077,3.2,182820.451436283,182820.451436283,182823.651245938,3.2,182825.270059599,182827.015170734,1.74511113547487,66,Shorter,Index,66,S,Index
217,Spatial,1243,3,4,85,800,5,5,1,r,r,0,400,0,800,L,S,=,0.361455671511826,0.464392700045925,1.53671065209287,1.68218667453023,1.28831323497617,182828.386728928,182828.761318978,182828.761318978,182829.561179128,0.8,182831.121198369,182831.121198369,182832.721248177,1.6,182834.553426712,182835.023145876,0.469719163374975,66,Longer,Index,66,L,Index
217,Spatial,1243,3,4,86,400,1.66666666666667,1.25,2,l,l,-1600,-1200,-1600,-1200,L,S,=,0.478591685725521,0.265055936498595,1.78082771732019,1.09445407064745,1.88815733581987,182836.45350486,182836.951508784,182836.951508784,182839.351360079,2.4,182841.161472835,182841.161472835,182844.361555813,3.2,182845.603486927,182846.415126656,0.811639728897717,77,Equals to,Ring,66,L,Index
217,Spatial,1243,3,4,87,1200,5,5,1,l,l,-1600,0,-1600,-400,S,=,L,0.393280108403589,0.465706771414865,1.9598715736445,1.88836516180199,1.2790309393617,182848.453591558,182848.861659477,182848.861659477,182852.061606757,3.2,182854.041706161,182854.041706161,182856.441548794,2.4,182858.470293916,182859.543197936,1.07290401976206,66,Shorter,Index,66,S,Index
217,Spatial,1243,3,4,88,800,7.5,3.33333333333333,1,m,m,-800,400,-800,0,S,=,L,0.404214744641867,0.368687320584461,1.94003389759542,1.61274865390458,1.92676117069286,182860.986955863,182861.402083758,182861.402083758,182863.001675139,1.6,182864.972165235,182864.972165235,182867.371753152,2.4,182869.136972898,182869.655211463,0.518238565156935,66,Shorter,Index,66,S,Index
217,Spatial,1243,3,4,89,1600,7.5,20,2,l,l,-1600,-400,-1600,0,=,L,S,0.366993687626865,0.339382075821107,1.90900228807445,1.63544565317287,1.76484777426512,182871.720397179,182872.102039744,182872.102039744,182873.701891296,1.6,182875.641909678,182875.641909678,182876.441884033,0.8,182878.220415852,182879.679146191,1.45873033956741,78,Longer,Middle,78,L,Middle
217,Spatial,1243,3,4,90,400,2.5,5,2,r,r,0,400,0,400,=,L,S,0.34729250689686,0.285222839366034,1.12082675268162,1.2681306988889,1.29710200240367,182881.603741323,182881.962236408,182881.962236408,182883.562066787,1.6,182884.702131301,182884.702131301,182885.501994016,0.8,182886.920418929,182887.471171114,0.55075218481943,66,Equals to,Index,77,S,Ring
217,Spatial,1243,3,4,91,800,1.25,3.33333333333333,1,m,m,-800,-400,-800,0,L,S,=,0.238845594008334,0.256725248022016,1.69386742167954,1.69426405074456,1.64154000527677,182888.920488864,182889.172196289,182889.172196289,182892.372072029,3.2,182894.092433644,182894.092433644,182896.492321511,2.4,182898.337218587,182898.999209864,0.661991277273046,66,Longer,Index,77,=,Ring
217,Spatial,1243,3,4,92,800,2.5,3.33333333333333,1,l,l,-1600,-1200,-1600,-800,S,=,L,0.409003078516392,0.237528775221053,1.37203477521648,1.53886654167822,1.35913339537252,182900.787010143,182901.212431937,182901.212431937,182902.81230787,1.6,182904.212263195,182904.212263195,182906.612299273,2.4,182908.287246574,182908.727261383,0.440014808205888,77,Longer,Ring,77,L,Ring
217,Spatial,1243,3,4,93,1200,2.5,5,1,l,l,-1600,-800,-1600,-400,=,L,S,0.422472483812153,0.276522936692793,1.05134827912876,1.29664231672269,1.28515499543995,182910.253915551,182910.692674053,182910.692674053,182913.892580911,3.2,182914.97277123,182914.97277123,182917.372646265,2.4,182918.820618981,182919.327238734,0.506619752559345,78,Longer,Middle,66,=,Index
217,Spatial,1243,3,4,94,1600,20,20,2,l,l,-1600,0,-1600,0,L,S,=,0.302887912357697,0.498984772241522,1.35125096100307,1.12066546720283,1.84253269183241,182920.770645704,182921.093004351,182921.093004351,182921.892552681,0.8,182923.272822944,182923.272822944,182924.072684376,0.8,182925.337314167,182925.807217471,0.469903303834144,77,Equals to,Ring,77,=,Ring
217,Spatial,1243,3,4,95,400,1.25,1.25,2,r,r,0,400,0,400,=,L,S,0.400044398249932,0.221384446087027,1.62676211591557,1.59075033602722,1.62202087788037,182927.804039284,182928.222883351,182928.222883351,182931.422791492,3.2,182933.083093168,182933.083093168,182936.282995535,3.2,182938.020784422,182938.9912097,0.970425278152106,66,Equals to,Index,66,=,Index
217,Spatial,1243,3,4,96,800,5,5,1,l,l,-1600,-400,-1600,-800,L,S,=,0.357175656053153,0.345397557212102,1.62984333653784,1.94753504746517,1.45453032886507,182940.754147491,182941.123258561,182941.123258561,182943.522881766,2.4,182945.183234449,182945.183234449,182946.783120327,1.6,182948.88745779,182949.375114927,0.487657136894995,78,Shorter,Middle,78,S,Middle
