Subject,Task,SequenceOrder,ListNo,RunNo,TrialNo,Aud_Probe_Dist,Aud_Standard_Vel,Aud_Probe_Vel,Main_Control,Aud_Std_StartCode,Aud_Probe_StartCode,Aud_Std_StartPt,Aud_Std_EndPt,Aud_Probe_StartPt,Aud_Probe_EndPt,RespIndex,RespMiddle,RespRing,ISI_Cross_Std,ISI_Cross_Probe,ISI_Std_Probe,ISI_Probe_Response,ITI,TrialOnset,StdOnset,StdOnsetByStop,StdOffset,StdDur,ProbeOnset,ProbeOnsetByStop,ProbeOffset,ProbeDur,RespWinStart,RespTime,RT,CorrectKC,CorrectResponse,CorrectFinger,SubjRespKC,SubjResponse,SubjRespFinger
217,Spatial,1243,1,0,1,1200,10,7.5,1,m,m,-800,0,-800,400,=,L,S,0.25329076396122,0.327363000475294,1.86910236773818,1.06040410532639,1.74571489192611,178595.277129116,178595.541791494,178595.541791494,178596.34166223,0.8,178598.241920713,178598.241920713,178599.84194999,1.6,178601.06050842,178602.125116371,1.06460795088788,78,Longer,Middle,78,L,Middle
217,Spatial,1243,1,0,2,1600,5,5,2,l,l,-1600,-400,-1600,0,S,=,L,0.203351431308714,0.492002814908699,1.34913680669134,1.83631074790336,1.24545236576754,178604.027192474,178604.241829926,178604.241829926,178606.641823016,2.4,178608.02205382,178608.02205382,178611.221973832,3.2,178613.210560422,178613.901147381,0.690586958866334,77,Longer,Ring,77,L,Ring
217,Spatial,1243,1,0,3,800,7.5,3.33333333333333,1,r,r,0,1200,0,800,L,S,=,0.219191670731382,0.307268327311655,1.40050110307482,1.72226364437373,1.73483793034827,178615.31060033,178615.542415775,178615.542415775,178617.142266685,1.6,178618.572283739,178618.572283739,178620.9720651,2.4,178622.843949639,178623.573052105,0.729102466139011,78,Shorter,Middle,66,L,Index
217,Spatial,1243,1,0,4,1200,5,5,1,l,l,-1600,-800,-1600,-400,=,L,S,0.315532297920998,0.365629051723527,1.54853717135461,1.62007022938033,1.24126390071515,178625.460715209,178625.792450903,178625.792450903,178627.392342234,1.6,178628.97242316,178628.97242316,178631.372289854,2.4,178633.144053643,178633.581126696,0.437073052424239,78,Longer,Middle,78,L,Middle
217,Spatial,1243,1,0,5,400,2.5,5,2,l,l,-1600,-1200,-1600,-1200,S,=,L,0.36224462918605,0.490819940197157,1.12853632593138,1.15009653574962,1.17216251903462,178634.960772312,178635.342654195,178635.342654195,178636.942505747,1.6,178638.102459032,178638.102459032,178638.902464505,0.8,178640.194065417,178640.989080536,0.79501511939452,78,Equals to,Middle,66,S,Index
217,Spatial,1243,1,0,6,1600,10,20,2,r,r,0,1600,0,1600,=,L,S,0.428153649700141,0.226815875551155,1.00153739414867,1.85910555151756,1.31372965667222,178642.310819983,178642.752423776,178642.752423776,178644.352471338,1.6,178645.372493287,178645.372493287,178646.17252667,0.8,178648.177461018,178648.621184299,0.443723281176062,66,Equals to,Index,66,=,Index
217,Spatial,1243,1,0,7,1200,6.66666666666667,7.5,1,l,l,-1600,0,-1600,-400,=,L,S,0.38583321020077,0.348425543386452,1.80332796085363,1.69536966356382,1.3819393072348,178650.09415383,178650.492784473,178650.492784473,178652.892482104,2.4,178654.732766623,178654.732766623,178656.332636461,1.6,178658.177507534,178658.845052236,0.667544702184387,77,Shorter,Ring,66,=,Index
217,Spatial,1243,1,0,8,1600,5,5,2,l,l,-1600,0,-1600,0,=,L,S,0.480794662238656,0.372488021224543,1.65205198059663,1.54633522231587,1.86236295118313,178660.394267779,178660.892858771,178660.892858771,178664.09277012,3.2,178665.782957725,178665.782957725,178668.982948313,3.2,178670.677587735,178671.293156712,0.615568977926159,66,Equals to,Index,66,=,Index
217,Spatial,1243,1,0,9,800,3.75,3.33333333333333,1,r,r,0,1200,0,800,L,S,=,0.356199945663791,0.269904249810339,1.21362967342306,1.07681805485943,1.93927111497698,178673.310964761,178673.682977166,178673.682977166,178676.882978982,3.2,178678.12313441,178678.12313441,178680.523107611,2.4,178681.760986993,178683.517145592,1.75615859945538,78,Shorter,Middle,78,S,Middle
217,Spatial,1243,1,0,10,400,2.5,1.25,2,m,m,-800,0,-800,-400,L,S,=,0.332787523053902,0.331025154178454,1.74234094965054,1.88118311984186,1.6782181941123,178685.611149256,178685.96325688,178685.96325688,178689.163158926,3.2,178690.933461096,178690.933461096,178694.133291283,3.2,178696.161149832,178696.94898989,0.787840058328584,78,Shorter,Middle,66,L,Index
217,Spatial,1243,1,0,11,800,3.75,3.33333333333333,1,m,m,-800,400,-800,0,L,S,=,0.23848666379909,0.319814217409281,1.41424140608023,1.39701539976174,1.38296900623115,178698.811127408,178699.06328973,178699.06328973,178702.263330363,3.2,178703.703305116,178703.703305116,178706.103386747,2.4,178707.64454792,178708.237297036,0.592749116185587,78,Shorter,Middle,78,S,Middle
217,Spatial,1243,1,0,12,400,3.33333333333333,1.25,2,l,l,-1600,-800,-1600,-1200,=,L,S,0.401598216445373,0.430331661503405,1.61718779710843,1.1010297159739,1.14179957692213,178709.777909307,178710.193771196,178710.193771196,178712.593355905,2.4,178714.243772062,178714.243772062,178717.443698169,3.2,178718.69455849,178719.35726325,0.662704760004999,77,Shorter,Ring,66,=,Index
217,Spatial,1243,1,0,13,1200,10,5,1,l,l,-1600,0,-1600,-400,L,S,=,0.42290358700049,0.317087562769451,1.98019935889119,1.65455884729018,1.41054836597273,178720.661309591,178721.103936005,178721.103936005,178722.703731417,1.6,178724.703971742,178724.703971742,178727.103589815,2.4,178728.894678182,178729.589302339,0.694624156487407,78,Shorter,Middle,78,S,Middle
217,Spatial,1243,1,0,14,1600,6.66666666666667,5,2,r,r,0,1600,0,1600,S,=,L,0.431108228148591,0.457886838933264,1.08650763862,1.19074327340874,1.29714242190187,178731.161335897,178731.603888847,178731.603888847,178734.003744955,2.4,178735.113881834,178735.113881834,178738.313816603,3.2,178739.644691719,178740.149203801,0.504512082377914,78,Equals to,Middle,77,L,Ring
217,Spatial,1243,1,0,15,800,5,5,1,l,l,-1600,-1200,-1600,-800,S,=,L,0.463436659156314,0.477261218875103,1.82384527460275,1.6782653608091,1.90002419937445,178741.594760146,178742.074262126,178742.074262126,178742.874050737,0.8,178744.734060739,178744.734060739,178746.334102206,1.6,178748.161467395,178748.597182202,0.435714807128534,77,Longer,Ring,77,L,Ring
217,Spatial,1243,1,0,16,1200,2.5,5,1,r,r,0,800,0,1200,L,S,=,0.207647403460086,0.396753502488599,1.20848789339951,1.8608432361886,1.69728140935032,178750.644824852,178750.864009674,178750.864009674,178754.064046137,3.2,178755.304302939,178755.304302939,178757.704202675,2.4,178759.711483049,178760.205241522,0.493758473166963,66,Longer,Index,77,=,Ring
217,Spatial,1243,1,0,17,800,15,5,1,m,m,-800,400,-800,0,L,S,=,0.233509120030655,0.315818586362158,1.16993246736989,1.05123988990522,1.81121878653976,178762.061522476,178762.314402111,178762.314402111,178763.114196496,0.8,178764.314477179,178764.314477179,178765.914108982,1.6,178767.111533287,178767.693239993,0.581706705997931,78,Shorter,Middle,78,S,Middle
217,Spatial,1243,1,0,18,400,1.66666666666667,1.25,2,r,r,0,400,0,400,S,=,L,0.327700568201229,0.406097519301678,1.37612700753973,1.98717188648804,1.38294239377748,178769.661573291,178770.004533531,178770.004533531,178772.404389959,2.4,178773.804365495,178773.804365495,178777.004408053,3.2,178779.128268573,178779.925226791,0.796958218095824,78,Equals to,Middle,78,=,Middle
217,Spatial,1243,1,0,19,1200,5,5,1,r,r,0,1600,0,1200,S,=,L,0.344338039246353,0.46890224402541,1.254839608529,1.8995734174677,1.43666152742291,178781.461697185,178781.824508342,178781.824508342,178785.024542559,3.2,178786.31481338,178786.31481338,178788.714708625,2.4,178790.761735714,178791.341013337,0.579277623066446,66,Shorter,Index,78,=,Middle
217,Spatial,1243,1,0,20,800,3.75,3.33333333333333,1,r,r,0,1200,0,800,S,=,L,0.359118532611473,0.260552931801489,1.56915591961846,1.02172557548311,1.02117266196259,178792.928421981,178793.304824884,178793.304824884,178796.504815792,3.2,178798.114864451,178798.114864451,178800.514698744,2.4,178801.67841765,178802.117215655,0.438798005634453,66,Shorter,Index,78,=,Middle
