Subject,Task,SequenceOrder,ListNo,RunNo,TrialNo,Aud_Probe_Dist,Aud_Standard_Vel,Aud_Probe_Vel,Main_Control,Aud_Std_StartCode,Aud_Probe_StartCode,Aud_Std_StartPt,Aud_Std_EndPt,Aud_Probe_StartPt,Aud_Probe_EndPt,RespIndex,RespMiddle,RespRing,ISI_Cross_Std,ISI_Cross_Probe,ISI_Std_Probe,ISI_Probe_Response,ITI,TrialOnset,StdOnset,StdOnsetByStop,StdOffset,StdDur,ProbeOnset,ProbeOnsetByStop,ProbeOffset,ProbeDur,RespWinStart,RespTime,RT,CorrectKC,CorrectResponse,CorrectFinger,SubjRespKC,SubjResponse,SubjRespFinger
218,Spatial,2314,2,0,1,1200,2.5,5,1,l,l,-1600,-800,-1600,-400,L,S,=,0.394604676877474,0.410591420069996,1.9383432827195,1.67918110322825,1.04275980175343,189229.661986805,189230.067809191,189230.067809191,189233.266275968,3.2,189235.236674635,189235.236674635,189237.636568597,2.4,189239.462037876,189240.098206523,0.63616864697542,66,Longer,Index,66,L,Index
218,Spatial,2314,2,0,2,1200,10,7.5,1,r,r,0,800,0,1200,=,L,S,0.235877545962486,0.276380649233177,1.80622512599937,1.10790865657291,1.0215794410352,189241.27877066,189241.526643858,189241.526643858,189242.326483797,0.8,189244.166585138,189244.166585138,189245.76642065,1.6,189247.012088788,189247.578311657,0.566222868947079,78,Longer,Middle,78,L,Middle
218,Spatial,2314,2,0,3,400,3.33333333333333,1.25,2,m,m,-800,0,-800,-400,L,S,=,0.297872901524945,0.31919080499401,1.64279993522052,1.02703036608808,1.65280833393162,189248.745507599,189249.056728043,189249.056728043,189251.456609814,2.4,189253.136838758,189253.136838758,189256.336770959,3.2,189257.512151986,189258.738129839,1.22597785308608,78,Shorter,Middle,78,S,Middle
218,Spatial,2314,2,0,4,800,2.5,3.33333333333333,1,l,l,-1600,-1200,-1600,-800,S,=,L,0.449817328752707,0.288612414898059,1.4531743796279,1.57188153799694,1.96152414017306,189260.545577646,189261.007095457,189261.007095457,189262.606953746,1.6,189264.097044533,189264.097044533,189266.496885242,2.4,189268.212220894,189268.890242995,0.678022100677481,77,Longer,Ring,77,L,Ring
218,Spatial,2314,2,0,5,800,3.75,3.33333333333333,1,m,m,-800,400,-800,0,L,S,=,0.291214763214055,0.253848453044808,1.03903843761994,1.41566938594751,1.89675621586833,189271.012266833,189271.317241852,189271.317241852,189274.517125613,3.2,189275.587103195,189275.587103195,189277.986993307,2.4,189279.545623521,189280.098257852,0.55263433107757,78,Shorter,Middle,78,S,Middle
218,Spatial,2314,2,0,6,800,1.25,3.33333333333333,1,l,l,-1600,-1200,-1600,-800,=,L,S,0.264287753096985,0.423010301540426,1.34191150866263,1.60105744655264,1.43972310005612,189282.145684601,189282.427308111,189282.427308111,189285.627145355,3.2,189287.007293713,189287.007293713,189289.407327545,2.4,189291.162439136,189291.834361825,0.671922689245548,78,Longer,Middle,66,=,Index
218,Spatial,2314,2,0,7,800,7.5,3.33333333333333,1,m,m,-800,400,-800,0,S,=,L,0.335565902242847,0.327552558319222,1.03806286659414,1.30009418523915,1.48743972288444,189293.429128387,189293.777522695,189293.777522695,189295.377394779,1.6,189296.447322957,189296.447322957,189298.847237772,2.4,189300.295753285,189302.826223074,2.53046978911152,66,Shorter,Index,66,S,Index
218,Spatial,2314,2,0,8,800,1.66666666666667,5,1,l,l,-1600,-1200,-1600,-800,S,=,L,0.46264133063453,0.329818200075079,1.32274838580587,1.39782883932643,1.95280697719768,189304.462512984,189304.937579233,189304.937579233,189307.337446248,2.4,189308.687736587,189308.687736587,189310.287592951,1.6,189311.829151356,189312.338159802,0.509008445427753,77,Longer,Ring,77,L,Ring
218,Spatial,2314,2,0,9,400,5,5,2,l,l,-1600,-1200,-1600,-1200,L,S,=,0.336854604726027,0.443542897932041,1.30936635748802,1.77184247196401,1.07655763615072,189314.445891904,189314.797899086,189314.797899086,189315.597682885,0.8,189316.937673549,189316.937673549,189317.73765817,0.8,189319.645941117,189320.218266732,0.572325614804868,77,Equals to,Ring,77,=,Ring
218,Spatial,2314,2,0,10,800,15,5,1,r,r,0,1200,0,800,L,S,=,0.262896383859256,0.395081480381382,1.67228226729141,1.92662456594094,1.11335392167563,189321.445968576,189321.72779836,189321.72779836,189322.527669417,0.8,189324.237923839,189324.237923839,189325.837820624,1.6,189327.912598093,189328.402137376,0.489539283182239,78,Shorter,Middle,66,L,Index
218,Spatial,2314,2,0,11,1600,20,20,2,m,m,-800,800,-800,800,L,S,=,0.315793122222571,0.485793732162385,1.68196790610604,1.04329845889775,1.53947987127303,189329.696009157,189330.027934124,189330.027934124,189330.827889552,0.8,189332.547900209,189332.547900209,189333.347881301,0.8,189334.546043789,189335.098339015,0.552295225585112,77,Equals to,Ring,77,=,Ring
218,Spatial,2314,2,0,12,400,2.5,1.25,2,r,r,0,800,0,400,L,S,=,0.3827601182016,0.257161919962951,1.23190836904025,1.83402989412821,1.26556602147381,189336.779364344,189337.178259129,189337.178259129,189340.3781153,3.2,189341.638117796,189341.638117796,189344.838117687,3.2,189346.812714416,189347.282364607,0.469650190905668,78,Shorter,Middle,66,L,Index
218,Spatial,2314,2,0,13,1200,5,5,1,r,r,0,800,0,1200,=,L,S,0.345879136568939,0.407754327738918,1.07079918334233,1.65772798406575,1.52449955026592,189348.696091924,189349.058340073,189349.058340073,189350.65812554,1.6,189351.768438861,189351.768438861,189354.168256472,2.4,189355.962833774,189356.434313512,0.4714797383931,78,Longer,Middle,78,L,Middle
218,Spatial,2314,2,0,14,800,1.25,3.33333333333333,1,m,m,-800,-400,-800,0,=,L,S,0.247062323464493,0.483240645466553,1.86151238725542,1.08343263020849,1.46047805571746,189358.129486659,189358.388362408,189358.388362408,189361.588277607,3.2,189363.468378807,189363.468378807,189365.868268599,2.4,189367.09618162,189367.602295789,0.506114168383647,78,Longer,Middle,78,L,Middle
218,Spatial,2314,2,0,15,1200,10,5,1,m,m,-800,800,-800,400,S,=,L,0.293201794121789,0.393313688798735,1.47517490906059,1.68666667196482,1.44853277562643,189369.229609013,189369.538759914,189369.538759914,189371.138229711,1.6,189372.63872315,189372.63872315,189375.038602355,2.4,189376.862977989,189377.41046123,0.547483241185546,66,Shorter,Index,78,=,Middle
218,Spatial,2314,2,0,16,1200,3.33333333333333,7.5,1,r,r,0,800,0,1200,S,=,L,0.219795854297786,0.456962529156336,1.21100716430406,1.63793612092259,1.89391396450075,189379.012948858,189379.248698621,189379.248698621,189381.648555691,2.4,189382.888965836,189382.888965836,189384.488776647,1.6,189386.262982061,189387.202295917,0.939313855487853,77,Longer,Ring,77,L,Ring
218,Spatial,2314,2,0,17,1200,10,7.5,1,r,r,0,800,0,1200,S,=,L,0.353248366127607,0.461958492106343,1.25343599009189,1.23924258743163,1.84854404141007,189389.246397231,189389.618794278,189389.618794278,189390.418641916,0.8,189391.698756141,189391.698756141,189393.298602239,1.6,189394.679683535,189395.506313386,0.826629851391772,77,Longer,Ring,77,L,Ring
218,Spatial,2314,2,0,18,800,7.5,3.33333333333333,1,r,r,0,1200,0,800,L,S,=,0.289929366024912,0.226188742653234,1.45992785056368,1.79096337760245,1.7999641980374,189397.513122092,189397.818716259,189397.818716259,189399.418779861,1.6,189400.90878724,189400.90878724,189403.308783537,2.4,189405.246427708,189405.818308243,0.57188053583377,78,Shorter,Middle,66,L,Index
218,Spatial,2314,2,0,19,800,3.75,3.33333333333333,1,r,r,0,1200,0,800,=,L,S,0.342633869769554,0.24549980451262,1.90931486568352,1.29974110516845,1.8728876486041,189407.779816475,189408.13911132,189408.13911132,189411.338970379,3.2,189413.269261398,189413.269261398,189415.668951651,2.4,189417.113219617,189417.642308159,0.529088541370584,77,Shorter,Ring,66,=,Index
218,Spatial,2314,2,0,20,400,2.5,5,2,r,r,0,400,0,400,=,L,S,0.256011754300547,0.325973829772014,1.68911838345423,1.48169991692731,1.80697201450696,189419.663241783,189419.939160146,189419.939160146,189421.539017794,1.6,189423.249312636,189423.249312636,189424.049155142,0.8,189425.679887565,189426.386274351,0.706386786041548,66,Equals to,Index,77,S,Ring
