Subject,Task,SequenceOrder,ListNo,RunNo,TrialNo,Aud_Probe_Dist,Aud_Standard_Vel,Aud_Probe_Vel,Main_Control,Aud_Std_StartCode,Aud_Probe_StartCode,Aud_Std_StartPt,Aud_Std_EndPt,Aud_Probe_StartPt,Aud_Probe_EndPt,RespIndex,RespMiddle,RespRing,ISI_Cross_Std,ISI_Cross_Probe,ISI_Std_Probe,ISI_Probe_Response,ITI,TrialOnset,StdOnset,StdOnsetByStop,StdOffset,StdDur,ProbeOnset,ProbeOnsetByStop,ProbeOffset,ProbeDur,RespWinStart,RespTime,RT,CorrectKC,CorrectResponse,CorrectFinger,SubjRespKC,SubjResponse,SubjRespFinger
229,Temporal,4132,1,2,1,800,5,5,1,m,m,-800,400,-800,0,S,=,L,0.218980783688054,0.234669381715985,1.17611902135989,1.66697115094769,1.1933822523052,1211642.06756377,1211642.29842873,1211642.29842873,1211644.69693137,2.4,1211645.92694881,1211645.92694881,1211647.52696654,1.6,1211649.33426549,1211650.08064838,0.746382890501991,66,Shorter,Index,66,S,Index
229,Temporal,4132,1,2,2,800,7.5,3.33333333333333,1,m,m,-800,400,-800,0,S,=,L,0.361760625005515,0.322822523862602,1.24416773137943,1.41170574455429,1.32396584790342,1211651.45096667,1211651.82709529,1211651.82709529,1211653.42705271,1.6,1211654.69707514,1211654.69707514,1211657.09710672,2.4,1211658.66766276,1211660.08869185,1.42102909483947,77,Longer,Ring,77,L,Ring
229,Temporal,4132,1,2,3,800,7.5,3.33333333333333,1,l,l,-1600,-400,-1600,-800,L,S,=,0.485778033924472,0.449970161827492,1.70706452898814,1.37153261816679,1.67855443444305,1211661.58435135,1211662.08718147,1211662.08718147,1211663.68723609,1.6,1211665.42722887,1211665.42722887,1211667.82727201,2.4,1211669.33440316,1211669.87265117,0.538248006487265,66,Longer,Index,66,L,Index
229,Temporal,4132,1,2,4,1600,7.5,20,2,m,m,-800,400,-800,800,S,=,L,0.448644738697838,0.245669499150758,1.52347664660825,1.9400225981407,1.70477752565098,1211671.71775091,1211672.1773272,1211672.1773272,1211673.77735647,1.6,1211675.3273699,1211675.3273699,1211676.12738724,0.8,1211678.21776724,1211678.74461165,0.526844403939322,66,Shorter,Index,66,S,Index
229,Temporal,4132,1,2,5,1200,10,7.5,1,r,r,0,800,0,1200,S,=,L,0.379245706704969,0.376025913264022,1.21175862769196,1.26726836470144,1.91689127795765,1211680.61779992,1211681.00745604,1211681.00745604,1211681.80746761,0.8,1211683.04750434,1211683.04750434,1211684.64752752,1.6,1211686.06782844,1211686.56061044,0.492781999520957,77,Longer,Ring,78,=,Middle
229,Temporal,4132,1,2,6,1200,20,7.5,1,l,l,-1600,0,-1600,-400,=,L,S,0.34068327072727,0.202094147955059,1.70209184885464,1.59347719498871,1.36369124728451,1211688.65115075,1211689.0075773,1211689.0075773,1211689.80758117,0.8,1211691.53761625,1211691.53761625,1211693.13763077,1.6,1211694.88455063,1211695.43263443,0.548083800589666,78,Longer,Middle,66,=,Index
229,Temporal,4132,1,2,7,1600,7.5,20,2,r,r,0,1200,0,1600,S,=,L,0.337862267107002,0.318260925312835,1.52849960000433,1.94538740330329,1.46121629365598,1211696.95124911,1211697.30770633,1211697.30770633,1211698.90771989,1.6,1211700.45774582,1211700.45774582,1211701.25776124,0.8,1211703.35126265,1211704.05666714,0.705404489766806,66,Shorter,Index,66,S,Index
229,Temporal,4132,1,2,8,1200,3.33333333333333,7.5,1,l,l,-1600,-800,-1600,-400,S,=,L,0.273810050161447,0.492139768061855,1.20343699545981,1.75162721611471,1.93652853339863,1211705.70127796,1211705.98782198,1211705.98782198,1211708.38785325,2.4,1211709.61787903,1211709.61787903,1211711.21791601,1.6,1211713.11796922,1211713.4886343,0.370665080612525,66,Shorter,Index,66,S,Index
229,Temporal,4132,1,2,9,400,5,5,2,m,m,-800,0,-800,-400,=,L,S,0.277449062307493,0.45752343270266,1.0825560822355,1.60855785281457,1.2572175276708,1211715.60135106,1211715.89796722,1211715.89796722,1211717.49798239,1.6,1211718.61800992,1211718.61800992,1211719.41801988,0.8,1211721.16804171,1211722.30467255,1.13663084246218,77,Shorter,Ring,77,S,Ring
229,Temporal,4132,1,2,10,800,3.75,3.33333333333333,1,r,r,0,1200,0,800,S,=,L,0.423590344426284,0.437363180495342,1.67432454915998,1.6068631819844,1.99896536439406,1211723.75140175,1211724.18808819,1211724.18808819,1211727.38812529,3.2,1211729.08815735,1211729.08815735,1211731.48818573,2.4,1211733.23477329,1211733.64066212,0.405888836830854,66,Shorter,Index,78,=,Middle
229,Temporal,4132,1,2,11,800,3.75,3.33333333333333,1,r,r,0,1200,0,800,=,L,S,0.369286401421563,0.267460548739784,1.91795326783856,1.57115390184244,1.17298499505364,1211735.81813188,1211736.19825601,1211736.19825601,1211739.39830017,3.2,1211741.34833977,1211741.34833977,1211743.74837104,2.4,1211745.46816295,1211746.32064689,0.852483939146623,77,Shorter,Ring,77,S,Ring
229,Temporal,4132,1,2,12,1200,10,5,1,l,l,-1600,0,-1600,-400,S,=,L,0.286686793668788,0.276765956979382,1.00312403587395,1.44038957134373,1.47943742455377,1211747.6682062,1211747.96842853,1211747.96842853,1211749.56846262,1.6,1211750.59846472,1211750.59846472,1211752.99851716,2.4,1211754.58489035,1211755.01667145,0.43178110010922,77,Longer,Ring,78,=,Middle
229,Temporal,4132,1,2,13,1200,5,5,1,m,m,-800,0,-800,400,S,=,L,0.322755197169606,0.318110524999906,1.57374654695339,1.62876646152021,1.77079589820226,1211756.66825683,1211757.00856345,1211757.00856345,1211758.60859529,1.6,1211760.20860798,1211760.20860798,1211762.60865239,2.4,1211764.38496131,1211765.00066823,0.615706922952086,77,Longer,Ring,78,=,Middle
229,Temporal,4132,1,2,14,800,5,5,1,r,r,0,400,0,800,L,S,=,0.416953915987559,0.304710082005647,1.18119001380639,1.33008483392792,1.62185783580671,1211766.95166482,1211767.38871754,1211767.38871754,1211768.18873712,0.8,1211769.39874934,1211769.39874934,1211770.9987645,1.6,1211772.48501235,1211773.40072039,0.915708045475185,66,Longer,Index,66,L,Index
229,Temporal,4132,1,2,15,800,15,5,1,r,r,0,1200,0,800,L,S,=,0.299971744337619,0.361158997216087,1.15301325947084,1.23333415158823,1.50495340779386,1211775.1850307,1211775.49885084,1211775.49885084,1211776.29884188,0.8,1211777.48886908,1211777.48886908,1211779.08887237,1.6,1211780.46837797,1211781.50468628,1.03630830720067,66,Longer,Index,77,=,Ring
229,Temporal,4132,1,2,16,1200,3.33333333333333,7.5,1,l,l,-1600,-800,-1600,-400,S,=,L,0.247078597030748,0.200118101733318,1.73827828489303,1.85299594368174,1.30414794001668,1211783.18508721,1211783.44897509,1211783.44897509,1211785.84897876,2.4,1211787.61901659,1211787.61901659,1211789.219034,1.6,1211791.21845559,1211791.85667875,0.63822316005826,66,Shorter,Index,66,S,Index
229,Temporal,4132,1,2,17,1600,3.75,5,2,l,l,-1600,-400,-1600,0,L,S,=,0.333558828427931,0.443373185109431,1.07129158959377,1.25065389870389,1.00764546413708,1211793.35181231,1211793.69910036,1211793.69910036,1211796.89914517,3.2,1211798.00916335,1211798.00916335,1211801.20921328,3.2,1211802.6018446,1211803.1526906,0.550846002530307,77,Equals to,Ring,77,=,Ring
229,Temporal,4132,1,2,18,400,10,5,2,m,m,-800,0,-800,-400,=,L,S,0.322624193999539,0.336455112655873,1.60059566058978,1.31604325272003,1.72477502580074,1211804.33520003,1211804.66925806,1211804.66925806,1211805.46926578,0.8,1211807.099294,1211807.099294,1211807.89930492,0.8,1211809.36855662,1211810.00066278,0.632106152828783,66,Equals to,Index,66,=,Index
229,Temporal,4132,1,2,19,1200,6.66666666666667,7.5,1,m,m,-800,800,-800,400,=,L,S,0.494566342707347,0.373935375415688,1.94825356759349,1.02580690951369,1.9172639848962,1211811.90192935,1211812.40936853,1211812.40936853,1211814.80939659,2.4,1211816.77942986,1211816.77942986,1211818.37945401,1.6,1211819.55194759,1211821.36066279,1.80871519935317,77,Shorter,Ring,77,S,Ring
229,Temporal,4132,1,2,20,800,5,5,1,l,l,-1600,-1200,-1600,-800,S,=,L,0.245867719487198,0.398848769632493,1.92135322777794,1.33203869928439,1.74086393682541,1211823.45193806,1211823.70953958,1211823.70953958,1211824.50953864,0.8,1211826.45956894,1211826.45956894,1211828.05959276,1.6,1211829.53534712,1211831.48871995,1.95337283355184,77,Longer,Ring,77,L,Ring
229,Temporal,4132,1,2,21,400,1.66666666666667,1.25,2,m,m,-800,-400,-800,-400,L,S,=,0.499028395360931,0.22969662845347,1.31707041269976,1.92826503237872,1.01948641517631,1211833.41869911,1211833.92967916,1211833.92967916,1211836.3297255,2.4,1211837.67973289,1211837.67973289,1211840.87978636,3.2,1211842.96876345,1211843.66473191,0.695968463318422,66,Longer,Index,66,L,Index
229,Temporal,4132,1,2,22,1200,5,5,1,m,m,-800,800,-800,400,L,S,=,0.485224888172208,0.426719183686896,1.96649706630733,1.5220197775349,1.24656733774632,1211844.85211423,1211845.34986198,1211845.34986198,1211848.54989748,3.2,1211850.54993634,1211850.54993634,1211852.94995959,2.4,1211854.61879561,1211855.05672328,0.43792766937986,78,Shorter,Middle,78,S,Middle
229,Temporal,4132,1,2,23,400,3.33333333333333,1.25,2,r,r,0,800,0,400,S,=,L,0.426277021633997,0.397189827103777,1.43949232733834,1.67042339171639,1.44787934656307,1211856.48551774,1211856.9300221,1211856.9300221,1211859.33005112,2.4,1211860.81007994,1211860.81007994,1211864.01012154,3.2,1211865.81888234,1211866.41680349,0.597921152831987,77,Longer,Ring,77,L,Ring
229,Temporal,4132,1,2,24,800,5,5,1,m,m,-800,-400,-800,0,S,=,L,0.204580927955317,0.342609687355593,1.03073836755304,1.16202277973565,1.29110184366883,1211868.03557909,1211868.26018655,1211868.26018655,1211869.06018913,0.8,1211870.11020801,1211870.11020801,1211871.71022926,1.6,1211873.01894786,1211873.36877844,0.349830584367737,77,Longer,Ring,77,L,Ring
229,Temporal,4132,1,2,25,800,7.5,3.33333333333333,1,r,r,0,1200,0,800,L,S,=,0.423508952088866,0.264517300765818,1.28470451039388,1.85686301366734,1.82120004227583,1211885.55236178,1211885.99047438,1211885.99047438,1211887.59046227,1.6,1211888.90049418,1211888.90049418,1211891.30051615,2.4,1211893.3023801,1211893.9847141,0.682334002340212,66,Longer,Index,66,L,Index
229,Temporal,4132,1,2,26,400,2.5,1.25,2,m,m,-800,0,-800,-400,=,L,S,0.357943028225668,0.34620458105129,1.02543005047357,1.60940291061549,1.52593683089543,1211896.00241705,1211896.38059835,1211896.38059835,1211899.58064091,3.2,1211900.64066561,1211900.64066561,1211903.84070399,3.2,1211905.58538855,1211906.08875473,0.503366176970303,66,Equals to,Index,66,=,Index
229,Temporal,4132,1,2,27,800,5,5,1,m,m,-800,400,-800,0,S,=,L,0.32115345123443,0.285935838302539,1.2670823029792,1.37285149814225,1.03527910327194,1211907.78573442,1211908.12076368,1211908.12076368,1211910.5208004,2.4,1211911.82082553,1211911.82082553,1211913.42084294,1.6,1211914.93584273,1211915.60872851,0.672885784646496,66,Shorter,Index,66,S,Index
229,Temporal,4132,1,2,28,1600,10,20,2,r,r,0,1600,0,1600,L,S,=,0.320248726586232,0.256090431954575,1.64574515331568,1.28361756073393,1.27648782426687,1211916.81921289,1211917.15089599,1211917.15089599,1211918.75092141,1.6,1211920.43094344,1211920.43094344,1211921.23095308,0.8,1211922.66923977,1211923.2167349,0.547495128586888,78,Shorter,Middle,78,S,Middle
229,Temporal,4132,1,2,29,800,15,5,1,r,r,0,1200,0,800,L,S,=,0.398023070682719,0.358184646514969,1.8433460857792,1.14317704449061,1.12743077483261,1211924.66925782,1211925.0810102,1211925.0810102,1211925.88102241,0.8,1211927.76106137,1211927.76106137,1211929.36107172,1.6,1211930.65260742,1211931.3687762,0.716168780811131,66,Longer,Index,66,L,Index
229,Temporal,4132,1,2,30,1200,20,7.5,1,r,r,0,1600,0,1200,S,=,L,0.256758720163298,0.315233404836365,1.90078625828489,1.38673786817533,1.94314899820343,1211932.6693125,1211932.94112955,1211932.94112955,1211933.74114176,0.8,1211935.67117004,1211935.67117004,1211937.27119002,1.6,1211938.80263513,1211940.09674495,1.29410981573164,77,Longer,Ring,77,L,Ring
229,Temporal,4132,1,2,31,800,15,5,1,m,m,-800,400,-800,0,=,L,S,0.474876073123917,0.400468428338074,1.3990055538774,1.80342257062644,1.74485605138006,1211942.20267955,1211942.69127375,1211942.69127375,1211943.49128083,0.8,1211944.92129981,1211944.92129981,1211946.52134256,1.6,1211948.46937366,1211950.3607555,1.89138184254989,78,Longer,Middle,78,L,Middle
229,Temporal,4132,1,2,32,1200,20,7.5,1,l,l,-1600,0,-1600,-400,L,S,=,0.312161716676369,0.259686685357988,1.08558827969871,1.98588545619816,1.03762474078478,1211952.26941835,1211952.60143022,1211952.60143022,1211953.40142863,0.8,1211954.52144558,1211954.52144558,1211956.12147871,1.6,1211958.25274398,NaN,NaN,66,Longer,Index,999,Missed,Missed
229,Temporal,4132,1,2,33,800,1.25,3.33333333333333,1,r,r,0,400,0,800,L,S,=,0.22934156223463,0.371425409998441,1.45836999459718,1.88402677118283,1.89620974411823,1211962.45277022,1211962.7015622,1211962.7015622,1211965.90160796,3.2,1211967.39163106,1211967.39163106,1211969.7916604,2.4,1211971.8195157,1211972.24880325,0.429287551902235,78,Shorter,Middle,77,=,Ring
229,Temporal,4132,1,2,34,800,1.25,3.33333333333333,1,l,l,-1600,-1200,-1600,-800,S,=,L,0.451566297689653,0.301986423500662,1.2545043075131,1.09510489359238,1.84137140502206,1211974.35282335,1211974.82174046,1211974.82174046,1211978.0217827,3.2,1211979.30179972,1211979.30179972,1211981.70183548,2.4,1211982.95290656,1211983.79279517,0.839888604590669,66,Shorter,Index,66,S,Index
229,Temporal,4132,1,2,35,1200,6.66666666666667,7.5,1,l,l,-1600,0,-1600,-400,=,L,S,0.470414705923222,0.335056473316395,1.40236317757543,1.25706331806622,1.06359711848526,1211985.80295841,1211986.29191067,1211986.29191067,1211988.69193424,2.4,1211990.12196156,1211990.12196156,1211991.72198795,1.6,1211993.11964504,1211993.53676778,0.417122734244913,77,Shorter,Ring,77,S,Ring
229,Temporal,4132,1,2,36,800,5,5,1,m,m,-800,400,-800,0,L,S,=,0.321130020323952,0.484477555021857,1.96526231479368,1.91273668617642,1.8016382612804,1211994.80301559,1211995.14203928,1211995.14203928,1211997.54207119,2.4,1211999.53210648,1211999.53210648,1212001.13211715,1.6,1212003.20301868,1212003.65677666,0.453757972689345,78,Shorter,Middle,78,S,Middle
229,Temporal,4132,1,2,37,800,3.75,3.33333333333333,1,m,m,-800,400,-800,0,L,S,=,0.272952885201716,0.338515953989841,1.56462444823986,1.7214123005931,1.20396732135582,1212005.63637396,1212005.92219452,1212005.92219452,1212009.12223997,3.2,1212010.71225838,1212010.71225838,1212013.11229414,2.4,1212014.96977008,1212015.81678989,0.847019810928032,78,Shorter,Middle,78,S,Middle
229,Temporal,4132,1,2,38,400,1.25,1.25,2,l,l,-1600,-1200,-1600,-1200,S,=,L,0.314259373220231,0.236882749625625,1.77340173189913,1.13278003102561,1.47418524568161,1212017.20314003,1212017.53236536,1212017.53236536,1212020.73240215,3.2,1212022.54243599,1212022.54243599,1212025.74247534,3.2,1212027.01986118,1212027.38478487,0.364923684392124,78,Equals to,Middle,78,=,Middle
229,Temporal,4132,1,2,39,1200,10,7.5,1,m,m,-800,0,-800,400,S,=,L,0.334080324587623,0.268660881895186,1.14045552652205,1.32243050277636,1.63270772985359,1212029.03655287,1212029.38253375,1212029.38253375,1212030.18254628,0.8,1212031.36256318,1212031.36256318,1212032.96259053,1.6,1212034.41990688,NaN,NaN,77,Longer,Ring,999,Missed,Missed
229,Temporal,4132,1,2,40,800,15,5,1,m,m,-800,400,-800,0,=,L,S,0.288203793533814,0.413829661082715,1.8608327265625,1.10578136624826,1.20084881275486,1212039.16989325,1212039.47267531,1212039.47267531,1212040.27270869,0.8,1212042.16273872,1212042.16273872,1212043.76275131,1.6,1212045.00330187,1212046.30478258,1.30148071027361,78,Longer,Middle,78,L,Middle
229,Temporal,4132,1,2,41,1200,10,5,1,m,m,-800,800,-800,400,=,L,S,0.361186886293745,0.480539216611968,1.3996948742011,1.0827240569503,1.37579521142216,1212047.6866426,1212048.06280115,1212048.06280115,1212049.66282946,1.6,1212051.10284624,1212051.10284624,1212053.50288039,2.4,1212054.73666881,1212056.48081603,1.74414722016081,78,Longer,Middle,66,=,Index
229,Temporal,4132,1,2,42,800,3.75,3.33333333333333,1,m,m,-800,400,-800,0,L,S,=,0.427226336792004,0.365499624954948,1.06657148237559,1.71955248291211,1.89926978124447,1212058.03671983,1212058.48295894,1212058.48295894,1212061.68299605,3.2,1212062.78302606,1212062.78302606,1212065.18311571,2.4,1212067.05341484,1212067.58481367,0.531398832099512,78,Shorter,Middle,77,=,Ring
229,Temporal,4132,1,2,43,400,5,5,2,r,r,0,400,0,400,=,L,S,0.306499166183362,0.306163134849603,1.58436693189332,1.52538769811372,1.04926461052967,1212069.65343871,1212069.97313983,1212069.97313983,1212070.77313215,0.8,1212072.38317504,1212072.38317504,1212073.18316126,0.8,1212074.85345761,1212075.65681997,0.803362358361483,66,Equals to,Index,66,=,Index
229,Temporal,4132,1,2,44,1600,20,20,2,r,r,0,1600,0,1600,L,S,=,0.462360527168536,0.32870538206501,1.69963659959458,1.3209384867775,1.19245804020305,1212076.87015504,1212077.34323164,1212077.34323164,1212078.14325604,0.8,1212079.87326931,1212079.87326931,1212080.67327671,0.8,1212082.13685832,1212082.54480163,0.407943302299827,77,Equals to,Ring,77,=,Ring
229,Temporal,4132,1,2,45,400,3.33333333333333,1.25,2,l,l,-1600,-800,-1600,-1200,=,L,S,0.464311847371264,0.36906793101119,1.47860291606053,1.87644812133397,1.20144737673084,1212083.92019899,1212084.40333521,1212084.40333521,1212086.8033761,2.4,1212088.31340281,1212088.31340281,1212091.51343895,3.2,1212093.55357125,1212094.99284226,1.43927101138979,78,Longer,Middle,66,=,Index
229,Temporal,4132,1,2,46,1200,5,5,1,m,m,-800,0,-800,400,=,L,S,0.441684630930984,0.285731488692726,1.20269537130031,1.09314246052247,1.35618241359643,1212096.37027109,1212096.82351578,1212096.82351578,1212098.42353447,1.6,1212099.65355865,1212099.65355865,1212102.05359184,2.4,1212103.3036277,1212104.21682729,0.913199597271159,78,Longer,Middle,66,=,Index
229,Temporal,4132,1,2,47,800,1.25,3.33333333333333,1,r,r,0,400,0,800,L,S,=,0.321432904441586,0.38965581566527,1.95810427544073,1.32590805438443,1.0574467541917,1212105.77029475,1212106.10364792,1212106.10364792,1212109.30369241,3.2,1212111.29380148,1212111.29380148,1212113.6937657,2.4,1212115.15369054,1212115.99282526,0.839134719455615,78,Shorter,Middle,78,S,Middle
229,Temporal,4132,1,2,48,1200,5,5,1,r,r,0,1600,0,1200,S,=,L,0.330701770030251,0.369930821299618,1.6319354942062,1.96800035438201,1.85500605744043,1212117.23707357,1212117.58382011,1212117.58382011,1212120.78386266,3.2,1212122.45389138,1212122.45389138,1212124.85392425,2.4,1212126.97043167,1212127.44083638,0.470404717605561,66,Shorter,Index,66,S,Index
229,Temporal,4132,1,2,49,1200,3.33333333333333,7.5,1,r,r,0,800,0,1200,S,=,L,0.414576617719083,0.282046540610474,1.93384246284041,1.26994578176233,1.14322038710428,1212138.4371863,1212138.8641303,1212138.8641303,1212141.26416798,2.4,1212143.23421986,1212143.23421986,1212144.83421224,1.6,1212146.25388443,1212146.63285348,0.378969044657424,66,Shorter,Index,66,S,Index
229,Temporal,4132,1,2,50,1600,5,5,2,l,l,-1600,-400,-1600,0,S,=,L,0.441383884359055,0.254588435405523,1.37600453830359,1.42634867538017,1.48062208322867,1212147.95392331,1212148.41426558,1212148.41426558,1212150.81430166,2.4,1212152.22432087,1212152.22432087,1212155.42436759,3.2,1212157.00396864,1212159.35285414,2.34888550126925,77,Longer,Ring,78,=,Middle
229,Temporal,4132,1,2,51,800,5,5,1,l,l,-1600,-1200,-1600,-800,=,L,S,0.429411174117343,0.39075182454278,1.38633575165104,1.7476872656895,1.64211406262163,1212161.00399609,1212161.44445691,1212161.44445691,1212162.24447072,0.8,1212163.65449282,1212163.65449282,1212165.25451536,1.6,1212167.15400863,1212167.77691931,0.622910678619519,78,Longer,Middle,78,L,Middle
229,Temporal,4132,1,2,52,1200,10,5,1,l,l,-1600,0,-1600,-400,=,L,S,0.351127878043858,0.490333345619926,1.41927527776202,1.78231273862854,1.21319582227071,1212169.58733361,1212169.95458111,1212169.95458111,1212171.55460814,1.6,1212173.00462785,1212173.00462785,1212175.40465911,2.4,1212177.33741421,1212177.88086114,0.543446926167235,78,Longer,Middle,66,=,Index
229,Temporal,4132,1,2,53,1200,5,5,1,l,l,-1600,-800,-1600,-400,=,L,S,0.344487406895632,0.350722297714145,1.08185074942225,1.85351785439087,1.31346233179602,1212179.27077662,1212179.63472435,1212179.63472435,1212181.23474657,1.6,1212182.3547648,1212182.3547648,1212184.75480248,2.4,1212186.75412274,1212187.13685741,0.382734667509794,78,Longer,Middle,66,=,Index
229,Temporal,4132,1,2,54,800,2.5,3.33333333333333,1,r,r,0,400,0,800,L,S,=,0.34923900189353,0.457409569101718,1.6053179134937,1.69690818136006,1.26326966673358,1212188.63749075,1212189.00486235,1212189.00486235,1212190.60488489,1.6,1212192.24492118,1212192.24492118,1212194.64493704,2.4,1212196.48753395,1212196.96086567,0.473331716610119,66,Longer,Index,77,=,Ring
229,Temporal,4132,1,2,55,1600,5,5,2,l,l,-1600,0,-1600,0,L,S,=,0.459956738006404,0.493933935394716,1.02035442865288,1.22295609617067,1.29967736657476,1212198.40422277,1212198.87500485,1212198.87500485,1212202.07504644,3.2,1212203.12506756,1212203.12506756,1212206.32510788,3.2,1212207.68759291,1212208.17692143,0.489328516181558,77,Equals to,Ring,77,=,Ring
229,Temporal,4132,1,2,56,1200,10,5,1,l,l,-1600,0,-1600,-400,=,L,S,0.446599003718912,0.444258906219387,1.66448312889724,1.20433756469112,1.25844494280687,1212209.65429511,1212210.11517114,1212210.11517114,1212211.71519111,1.6,1212213.41522831,1212213.41522831,1212215.81524931,2.4,1212217.17095034,1212217.63285797,0.4619076307863,78,Longer,Middle,66,=,Index
229,Temporal,4132,1,2,57,1200,2.5,5,1,r,r,0,800,0,1200,=,L,S,0.319435799158843,0.215299148099674,1.73663108319083,1.37837822404741,1.01122314553317,1212219.07100184,1212219.40531071,1212219.40531071,1212222.60535006,3.2,1212224.37537762,1212224.37537762,1212226.77540953,2.4,1212228.30437736,1212228.71293019,0.408552825218067,77,Shorter,Ring,77,S,Ring
229,Temporal,4132,1,2,58,1200,10,7.5,1,m,m,-800,0,-800,400,=,L,S,0.2786877433643,0.426275300905005,1.82061973944925,1.25141704148662,1.11268528810523,1212229.90440659,1212230.19547433,1212230.19547433,1212230.99547115,0.8,1212232.83549325,1212232.83549325,1212234.43552894,1.6,1212235.83774789,1212236.66491829,0.827170402975753,78,Longer,Middle,78,L,Middle
229,Temporal,4132,1,2,59,400,5,5,2,r,r,0,400,0,400,=,L,S,0.311229801707549,0.442202478877074,1.12894512475833,1.86380538481028,1.5123851916821,1212237.93777789,1212238.26558661,1212238.26558661,1212239.06559272,0.8,1212240.23561727,1212240.23561727,1212241.03562146,0.8,1212243.05446634,1212243.54492449,0.490458155749366,66,Equals to,Index,66,=,Index
229,Temporal,4132,1,2,60,1200,2.5,5,1,r,r,0,800,0,1200,=,L,S,0.400734028071432,0.334035579044443,1.86068274864923,1.51099365847634,1.11203241034431,1212245.25450435,1212245.66568336,1212245.66568336,1212248.8657317,3.2,1212250.76577877,1212250.76577877,1212253.16579817,2.4,1212254.83785632,1212255.26488025,0.42702392465435,77,Shorter,Ring,77,S,Ring
229,Temporal,4132,1,2,61,1600,3.75,5,2,l,l,-1600,-400,-1600,0,S,=,L,0.420613814453555,0.419351542402321,1.58395178224583,1.36161673227946,1.62263128256243,1212256.55456468,1212256.98584937,1212256.98584937,1212260.18589867,3.2,1212261.8059262,1212261.8059262,1212265.00597678,3.2,1212266.52127459,1212266.95291523,0.43164063594304,78,Equals to,Middle,78,=,Middle
229,Temporal,4132,1,2,62,400,1.66666666666667,1.25,2,r,r,0,400,0,400,L,S,=,0.221040603202636,0.377703616446651,1.16838749347219,1.07888610813301,1.79270858333047,1212268.77129926,1212269.00602719,1212269.00602719,1212271.40606455,2.4,1212272.60608859,1212272.60608859,1212275.80612794,3.2,1212277.03799645,1212277.80102759,0.763031144160777,66,Longer,Index,66,L,Index
229,Temporal,4132,1,2,63,800,1.66666666666667,5,1,m,m,-800,-400,-800,0,=,L,S,0.296146590475028,0.318281986651822,1.80920855238608,1.76065215496286,1.06155319811353,1212279.77135816,1212280.08621618,1212280.08621618,1212282.48622082,2.4,1212284.32625126,1212284.32625126,1212285.92627412,1.6,1212287.83794294,1212288.40093726,0.562994316220284,77,Shorter,Ring,77,S,Ring
229,Temporal,4132,1,2,64,1200,5,5,1,m,m,-800,0,-800,400,S,=,L,0.273000258775119,0.317285795997085,1.31083580184482,1.58643474691751,1.22768007817065,1212289.63809349,1212289.92633287,1212289.92633287,1212291.5263506,1.6,1212292.86637463,1212292.86637463,1212295.26641135,2.4,1212297.00479562,1212297.48891019,0.48411456681788,77,Longer,Ring,78,=,Middle
229,Temporal,4132,1,2,65,1200,3.33333333333333,7.5,1,m,m,-800,0,-800,400,L,S,=,0.287600643271489,0.321257551120631,1.63364399318028,1.63793508900712,1.56747588188646,1212298.90481744,1212299.20647272,1212299.20647272,1212301.60650334,2.4,1212303.26652367,1212303.26652367,1212304.86654974,1.6,1212306.65485372,1212307.01694188,0.362088162219152,78,Shorter,Middle,78,S,Middle
229,Temporal,4132,1,2,66,800,1.66666666666667,5,1,r,r,0,400,0,800,=,L,S,0.261153431776108,0.383986101363328,1.00939525766467,1.71191765270629,1.4045232521378,1212308.75487675,1212309.02660953,1212309.02660953,1212311.42664465,2.4,1212312.46665738,1212312.46665738,1212314.0666857,1.6,1212315.93825296,1212317.63294843,1.69469547225162,77,Shorter,Ring,77,S,Ring
229,Temporal,4132,1,2,67,1600,6.66666666666667,5,2,r,r,0,1600,0,1600,=,L,S,0.398190244853076,0.445026462819048,1.7089108162025,1.00386924914307,1.18694170339579,1212319.25492433,1212319.66676671,1212319.66676671,1212322.06681562,2.4,1212323.81682898,1212323.81682898,1212327.01687475,3.2,1212328.1716303,1212328.7049204,0.533290104474872,78,Longer,Middle,66,=,Index
229,Temporal,4132,1,2,68,400,1.25,1.25,2,r,r,0,400,0,400,S,=,L,0.405655512020624,0.23956689846185,1.2401592626539,1.56899098487284,1.49060773328967,1212330.08833786,1212330.50693409,1212330.50693409,1212333.70696639,3.2,1212334.97699427,1212334.97699427,1212338.17703298,3.2,1212339.88836534,1212341.01693707,1.12857173103839,78,Equals to,Middle,78,=,Middle
229,Temporal,4132,1,2,69,800,2.5,3.33333333333333,1,m,m,-800,-400,-800,0,L,S,=,0.243920415862007,0.20794763760074,1.38200796030986,1.0548545594966,1.26610513052711,1212342.68841049,1212342.94710962,1212342.94710962,1212344.54712414,1.6,1212345.95716773,1212345.95716773,1212348.35718905,2.4,1212349.55510199,1212350.68897461,1.1338726170361,66,Longer,Index,77,=,Ring
229,Temporal,4132,1,2,70,1600,15,20,2,l,l,-1600,-400,-1600,0,S,=,L,0.483240339854782,0.242396277030013,1.61297699600057,1.14665041121211,1.00378324263115,1212352.13846655,1212352.63724874,1212352.63724874,1212353.4372539,0.8,1212355.08728605,1212355.08728605,1212355.88729602,0.8,1212357.18847704,1212357.85693828,0.668461234075949,78,Equals to,Middle,78,=,Middle
229,Temporal,4132,1,2,71,1600,15,20,2,r,r,0,1200,0,1600,L,S,=,0.360116895313217,0.469159693230084,1.51067208598427,1.67838953245481,1.98856289073062,1212359.0384847,1212359.41734881,1212359.41734881,1212360.21735973,0.8,1212361.76738599,1212361.76738599,1212362.56740237,0.8,1212364.40518298,1212364.92094633,0.515763350995258,77,Equals to,Ring,77,=,Ring
229,Temporal,4132,1,2,72,1600,6.66666666666667,5,2,m,m,-800,800,-800,800,S,=,L,0.482835853120084,0.46943594521422,1.18791246169246,1.67450795477291,1.56028447041545,1212367.10520922,1212367.6074706,1212367.6074706,1212370.00750411,2.4,1212371.22752985,1212371.22752985,1212374.42756342,3.2,1212376.23860238,1212376.77695556,0.538353181444108,77,Longer,Ring,78,=,Middle
229,Temporal,4132,1,2,73,1600,10,20,2,m,m,-800,800,-800,800,=,L,S,0.37597696883959,0.328933638880805,1.99495943944495,1.91234808305717,1.91217515791703,1212399.52208104,1212399.91793235,1212399.91793235,1212401.51795457,1.6,1212403.54799388,1212403.54799388,1212404.34800834,0.8,1212406.40544613,1212406.86496539,0.459519258700311,77,Shorter,Ring,77,S,Ring
229,Temporal,4132,1,2,74,800,1.66666666666667,5,1,l,l,-1600,-1200,-1600,-800,=,L,S,0.22534214479562,0.367600492482355,1.5541266284953,1.28313054350327,1.32196337942369,1212408.95547632,1212409.19807572,1212409.19807572,1212411.59810506,2.4,1212413.17813562,1212413.17813562,1212414.77815238,1.6,1212416.2055093,1212417.52898512,1.32347582071088,77,Shorter,Ring,77,S,Ring
229,Temporal,4132,1,2,75,1200,6.66666666666667,7.5,1,m,m,-800,800,-800,400,=,L,S,0.415068691099219,0.31284135879893,1.28802212999596,1.55060606161766,1.88098595465235,1212419.0221913,1212419.44821511,1212419.44821511,1212421.84825311,2.4,1212423.15827861,1212423.15827861,1212424.75837654,1.6,1212426.45554941,1212427.33699144,0.881442026933655,77,Shorter,Ring,66,=,Index
229,Temporal,4132,1,2,76,1200,20,7.5,1,l,l,-1600,0,-1600,-400,S,=,L,0.221740861696384,0.245709272379019,1.18677894735011,1.20445176896341,1.74362957677352,1212429.38893008,1212429.62837536,1212429.62837536,1212430.42838115,0.8,1212431.63840588,1212431.63840588,1212433.23842392,1.6,1212434.58893406,1212435.68099786,1.09206380369142,77,Longer,Ring,78,=,Middle
229,Temporal,4132,1,2,77,400,2.5,1.25,2,l,l,-1600,-800,-1600,-1200,L,S,=,0.284431225933965,0.265323649484099,1.26523232871632,1.22076172107373,1.57020858355853,1212437.60564944,1212437.90849563,1212437.90849563,1212441.10853209,3.2,1212442.39855044,1212442.39855044,1212445.59861,3.2,1212446.97233332,1212447.54500598,0.572672659065574,77,Equals to,Ring,77,=,Ring
229,Temporal,4132,1,2,78,800,7.5,3.33333333333333,1,l,l,-1600,-400,-1600,-800,L,S,=,0.251220131401823,0.297625219311946,1.44892844708807,1.11809676218418,1.83533425341645,1212449.28902927,1212449.55867242,1212449.55867242,1212451.15867924,1.6,1212452.6387132,1212452.6387132,1212455.03874672,2.4,1212456.30570521,1212457.54501688,1.23931167414412,66,Longer,Index,77,=,Ring
229,Temporal,4132,1,2,79,400,10,5,2,r,r,0,800,0,400,L,S,=,0.278358770595682,0.454760625521258,1.98171167815779,1.46587955878148,1.85426994651829,1212459.53910894,1212459.82880709,1212459.82880709,1212460.62883598,0.8,1212462.63885628,1212462.63885628,1212463.43887266,0.8,1212465.05577373,1212465.44898732,0.393213589442894,77,Equals to,Ring,77,=,Ring
229,Temporal,4132,1,2,80,400,5,5,2,m,m,-800,0,-800,-400,S,=,L,0.497630497657879,0.415028762706249,1.76528518166934,1.56796362647078,1.06770953666824,1212467.47249611,1212467.988931,1212467.988931,1212469.58895033,1.6,1212471.38898124,1212471.38898124,1212472.1889912,0.8,1212473.90581473,1212474.29701468,0.391199947567657,66,Shorter,Index,66,S,Index
229,Temporal,4132,1,2,81,1200,2.5,5,1,m,m,-800,0,-800,400,=,L,S,0.396647946031095,0.462538686577103,1.3808365527987,1.41811292442372,1.31274912290626,1212475.53918053,1212475.94905144,1212475.94905144,1212479.14908919,3.2,1212480.56912833,1212480.56912833,1212482.96914452,2.4,1212484.53883695,1212485.22499876,0.686161813791841,77,Shorter,Ring,77,S,Ring
229,Temporal,4132,1,2,82,1200,5,5,1,l,l,-1600,0,-1600,-400,=,L,S,0.341874997427857,0.454760537771429,1.4092440452112,1.26310863893991,1.40612636740886,1212486.72259791,1212487.07921435,1212487.07921435,1212490.27925851,3.2,1212491.70927107,1212491.70927107,1212494.10930138,2.4,1212495.52265505,1212496.21702074,0.694365687668324,77,Shorter,Ring,77,S,Ring
229,Temporal,4132,1,2,83,800,1.66666666666667,5,1,l,l,-1600,-1200,-1600,-800,L,S,=,0.29700621749019,0.35174524092609,1.52054794286094,1.1121044874717,1.56749917241853,1212497.78934398,1212498.0993665,1212498.0993665,1212500.49940386,2.4,1212502.05943658,1212502.05943658,1212503.65944981,1.6,1212504.92268511,1212505.48101332,0.558328215265647,78,Shorter,Middle,78,S,Middle
229,Temporal,4132,1,2,84,1200,10,7.5,1,m,m,-800,0,-800,400,L,S,=,0.421159334542555,0.413477804429036,1.28677789682404,1.12508432874249,1.4040313500757,1212507.22273995,1212507.6595137,1212507.6595137,1212508.45951564,0.8,1212509.77954279,1212509.77954279,1212511.37955731,1.6,1212512.63940737,1212513.44902133,0.809613959398121,66,Longer,Index,77,=,Ring
229,Temporal,4132,1,2,85,800,5,5,1,l,l,-1600,-400,-1600,-800,L,S,=,0.402768286367669,0.479632717055558,1.44827786514582,1.9460833988533,1.25716941332235,1212515.02277837,1212515.43961921,1212515.43961921,1212517.83965337,2.4,1212519.31969535,1212519.31969535,1212520.91969415,1.6,1212523.0227951,1212523.44103207,0.418236976256594,78,Shorter,Middle,77,=,Ring
229,Temporal,4132,1,2,86,400,2.5,5,2,l,l,-1600,-1200,-1600,-1200,L,S,=,0.336555988678928,0.351074333668108,1.4074097905781,1.11388317856721,1.08031091435657,1212524.87282645,1212525.2197581,1212525.2197581,1212526.8197832,1.6,1212528.25981057,1212528.25981057,1212529.05981026,0.8,1212530.32284471,1212530.74502869,0.422183982562274,78,Shorter,Middle,78,S,Middle
229,Temporal,4132,1,2,87,1200,5,5,1,r,r,0,1600,0,1200,S,=,L,0.429476175708513,0.222393737301639,1.14504899081734,1.20714336540245,1.19236156874325,1212532.00619748,1212532.44988039,1212532.44988039,1212535.6499175,3.2,1212536.82994979,1212536.82994979,1212539.22997175,2.4,1212540.57289156,1212541.38507327,0.812181707238778,66,Shorter,Index,78,=,Middle
229,Temporal,4132,1,2,88,1600,5,5,2,l,l,-1600,-400,-1600,0,S,=,L,0.445405218495886,0.266359733376895,1.01899769980103,1.37541987703454,1.6396948822813,1212542.77284268,1212543.24003087,1212543.24003087,1212545.64006053,2.4,1212546.69007908,1212546.69007908,1212549.89012581,3.2,1212551.40630877,1212551.76102806,0.354719288414344,77,Longer,Ring,77,L,Ring
229,Temporal,4132,1,2,89,400,2.5,5,2,l,l,-1600,-1200,-1600,-1200,S,=,L,0.486455727647527,0.432718286272429,1.92531743256714,1.35285536754709,1.98989305426529,1212553.5729976,1212554.07017896,1212554.07017896,1212555.67020535,1.6,1212557.63024114,1212557.63024114,1212558.43023891,0.8,1212559.92301353,1212560.32106201,0.398048479342833,66,Shorter,Index,66,S,Index
229,Temporal,4132,1,2,90,1600,5,5,2,r,r,0,1600,0,1600,S,=,L,0.265649286156699,0.271236722382008,1.60659888462445,1.8331423641683,1.40764736152142,1212562.50639019,1212562.79031532,1212562.79031532,1212565.99035467,3.2,1212567.63039352,1212567.63039352,1212570.83042485,3.2,1212572.80643022,1212573.25707738,0.450647154124454,78,Equals to,Middle,78,=,Middle
229,Temporal,4132,1,2,91,800,2.5,3.33333333333333,1,l,l,-1600,-1200,-1600,-800,=,L,S,0.419433129093763,0.303481499279047,1.18800525253315,1.19085748086649,1.34000396491246,1212574.83978805,1212575.27050675,1212575.27050675,1212576.87051165,1.6,1212578.09054123,1212578.09054123,1212580.49057378,2.4,1212581.82315569,1212582.76905613,0.945900436956435,78,Longer,Middle,66,=,Index
229,Temporal,4132,1,2,92,800,1.25,3.33333333333333,1,r,r,0,400,0,800,=,L,S,0.440202467128039,0.486147186757232,1.35973097718578,1.02104438714963,1.17881097553367,1212584.30651591,1212584.7606315,1212584.7606315,1212587.96067374,3.2,1212589.35069574,1212589.35069574,1212591.75073567,2.4,1212592.92320542,1212593.78509431,0.861888895975426,77,Shorter,Ring,77,S,Ring
229,Temporal,4132,1,2,93,1200,6.66666666666667,7.5,1,l,l,-1600,0,-1600,-400,L,S,=,0.313640667112203,0.326889259143081,1.6733808919287,1.77900332583813,1.4661251304002,1212595.13990983,1212595.47078996,1212595.47078996,1212597.8708193,2.4,1212599.5808668,1212599.5808668,1212601.18087875,1.6,1212603.10659279,1212603.4730924,0.366499608149752,78,Shorter,Middle,78,S,Middle
229,Temporal,4132,1,2,94,1200,2.5,5,1,m,m,-800,0,-800,400,L,S,=,0.340609049708168,0.364010378999724,1.79868203678624,1.66688736305141,1.7898215977612,1212605.12332129,1212605.48093757,1212605.48093757,1212608.68097628,3.2,1212610.50100567,1212610.50100567,1212612.90104624,2.4,1212614.72336231,1212615.75308243,1.02972012269311,78,Shorter,Middle,78,S,Middle
229,Temporal,4132,1,2,95,1600,20,20,2,r,r,0,1600,0,1600,L,S,=,0.367720023573873,0.222236166961169,1.89787152039504,1.01652886479286,1.60856697084416,1212617.72338013,1212618.11111844,1212618.11111844,1212618.91112296,0.8,1212620.84117818,1212620.84117818,1212621.64119713,0.8,1212622.80672581,1212623.2171282,0.410402393667027,77,Equals to,Ring,77,=,Ring
229,Temporal,4132,1,2,96,800,2.5,3.33333333333333,1,r,r,0,400,0,800,=,L,S,0.419193368941904,0.475198375446558,1.37274532266145,1.13582566528386,1.08612049637123,1212624.99004904,1212625.42122281,1212625.42122281,1212627.02179585,1.6,1212628.43126681,1212628.43126681,1212630.83130289,2.4,1212632.10679632,1212632.59307754,0.486281216377392,78,Longer,Middle,66,=,Index
