Subject,Task,SequenceOrder,ListNo,RunNo,TrialNo,Aud_Probe_Dist,Aud_Standard_Vel,Aud_Probe_Vel,Main_Control,Aud_Std_StartCode,Aud_Probe_StartCode,Aud_Std_StartPt,Aud_Std_EndPt,Aud_Probe_StartPt,Aud_Probe_EndPt,RespIndex,RespMiddle,RespRing,ISI_Cross_Std,ISI_Cross_Probe,ISI_Std_Probe,ISI_Probe_Response,ITI,TrialOnset,StdOnset,StdOnsetByStop,StdOffset,StdDur,ProbeOnset,ProbeOnsetByStop,ProbeOffset,ProbeDur,RespWinStart,RespTime,RT,CorrectKC,CorrectResponse,CorrectFinger,SubjRespKC,SubjResponse,SubjRespFinger
203,Spatial,3421,4,2,1,800,1.25,3.33333333333333,1,m,m,-800,-400,-800,0,=,L,S,0.412612206468532,0.230366769583342,1.51233167029363,1.20417389433031,1.15301475532665,776741.610618092,776742.034370033,776742.034370033,776745.23655376,3.2,776746.7868852,776746.7868852,776749.186680622,2.4,776750.527316117,776750.980368531,0.453052413533442,78,Longer,Middle,78,L,Middle
203,Spatial,3421,4,2,2,1600,6.66666666666667,5,2,m,m,-800,800,-800,800,L,S,=,0.308739942619932,0.427289296379197,1.06443054117419,1.5618558549027,1.16907222478655,776752.277376829,776752.596842184,776752.596842184,776754.996781325,2.4,776756.087151562,776756.087151562,776759.286914197,3.2,776761.010735634,776761.540374036,0.529638401814736,77,Equals to,Ring,66,L,Index
203,Spatial,3421,4,2,3,800,15,5,1,r,r,0,1200,0,800,=,L,S,0.381267996161779,0.414076738192413,1.44734121335161,1.1974527054325,1.25826396787038,776762.860751466,776763.257267971,776763.257267971,776764.056708714,0.8,776765.537230142,776765.537230142,776767.136905648,1.6,776768.494094198,776768.868182199,0.374088000389747,77,Shorter,Ring,78,L,Middle
203,Spatial,3421,4,2,4,1200,2.5,5,1,m,m,-800,0,-800,400,L,S,=,0.463590167190335,0.49135163902564,1.67461174643209,1.52005395538048,1.11185269368142,776770.294127818,776770.777101385,776770.777101385,776773.976997795,3.2,776775.687000977,776775.687000977,776778.086929852,2.4,776779.744152504,776780.164313425,0.42016092070844,66,Longer,Index,66,L,Index
203,Spatial,3421,4,2,5,800,15,5,1,m,m,-800,400,-800,0,=,L,S,0.210464848035241,0.38711767634625,1.74813757767593,1.01452024623201,1.10533769024423,776781.444198924,776781.667177669,776781.667177669,776782.466951083,0.8,776784.237410657,776784.237410657,776785.836993772,1.6,776787.01086203,776789.340279977,2.32941794674844,77,Shorter,Ring,77,S,Ring
203,Spatial,3421,4,2,6,800,7.5,3.33333333333333,1,m,m,-800,400,-800,0,S,=,L,0.363331596022736,0.251029737539131,1.64459736253464,1.61533770443846,1.17743380020813,776790.594268105,776790.977410061,776790.977410061,776792.577381025,1.6,776794.257505044,776794.257505044,776796.657380666,2.4,776798.427608336,776801.036282689,2.60867435368709,66,Shorter,Index,77,L,Ring
203,Spatial,3421,4,2,7,1200,6.66666666666667,7.5,1,r,r,0,1600,0,1200,=,L,S,0.423829927593067,0.485390414665233,1.58510100417812,1.71757479752325,1.91122848556174,776802.36097715,776802.797333075,776802.797333075,776805.197351774,2.4,776806.807731225,776806.807731225,776808.407541147,1.6,776810.277672929,776810.868227111,0.590554182068445,77,Shorter,Ring,77,S,Ring
203,Spatial,3421,4,2,8,1200,5,5,1,m,m,-800,0,-800,400,L,S,=,0.421378233767294,0.371801623559879,1.21235623862181,1.21817996207105,1.50834189131486,776812.927706661,776813.367689572,776813.367689572,776814.967557559,1.6,776816.207813158,776816.207813158,776818.607651888,2.4,776819.977694968,776820.468457318,0.490762350382283,66,Longer,Index,66,L,Index
203,Spatial,3421,4,2,9,800,5,5,1,l,l,-1600,-1200,-1600,-800,=,L,S,0.441084569043249,0.333224445742901,1.45729743760273,1.85058702565223,1.25038080568913,776822.127783302,776822.587495943,776822.587495943,776823.387544605,0.8,776824.867857833,776824.867857833,776826.467728065,1.6,776828.461080159,776830.508467725,2.04738756618463,78,Longer,Middle,78,L,Middle
203,Spatial,3421,4,2,10,800,2.5,3.33333333333333,1,m,m,-800,-400,-800,0,S,=,L,0.31055539118982,0.485805667884158,1.23279667684712,1.3103755093885,1.747860583927,776831.927778842,776832.258108793,776832.258108793,776833.857931547,1.6,776835.128109938,776835.128109938,776837.527982352,2.4,776838.994023141,776839.580321245,0.586298103793524,77,Longer,Ring,77,L,Ring
203,Spatial,3421,4,2,11,400,5,5,2,l,l,-1600,-1200,-1600,-1200,S,=,L,0.384378906892783,0.234707375042927,1.86999136398013,1.51621742745458,1.86626076523942,776841.477876061,776841.878053557,776841.878053557,776842.677887603,0.8,776844.578131416,776844.578131416,776845.377880449,0.8,776847.044542112,776847.42845429,0.383912178105675,78,Equals to,Middle,78,=,Middle
203,Spatial,3421,4,2,12,1200,10,5,1,r,r,0,1600,0,1200,L,S,=,0.403343171844872,0.320770481563606,1.54914532397172,1.55371082310679,1.33398503213249,776849.461208801,776849.878434349,776849.878434349,776851.477881765,1.6,776853.057954102,776853.057954102,776855.45805621,2.4,776857.161234048,776857.588454855,0.427220806945115,78,Shorter,Middle,66,L,Index
203,Spatial,3421,4,2,13,1200,20,7.5,1,l,l,-1600,0,-1600,-400,S,=,L,0.482126429595733,0.261515105723256,1.41471381623873,1.35539248833979,1.20074358306773,776859.077955491,776859.578382925,776859.578382925,776860.37818874,0.8,776861.828251316,776861.828251316,776863.428107112,1.6,776864.927979579,776866.148328189,1.22034861030988,66,Shorter,Index,66,S,Index
203,Spatial,3421,4,2,14,1600,20,20,2,r,r,0,1600,0,1600,S,=,L,0.330240338962005,0.449922792029282,1.51570457309494,1.97357211549063,1.20686984950583,776867.511320937,776867.858401877,776867.858401877,776868.65819839,0.8,776870.208419794,776870.208419794,776871.008192246,0.8,776873.128001542,776873.428277528,0.300275985850021,78,Equals to,Middle,78,=,Middle
203,Spatial,3421,4,2,15,800,7.5,3.33333333333333,1,l,l,-1600,-400,-1600,-800,L,S,=,0.454342706599744,0.30248096813539,1.66536064375571,1.36640604161553,1.13550674862814,776874.794699327,776875.268752998,776875.268752998,776876.868504213,1.6,776878.558642062,776878.558642062,776880.95851608,2.4,776882.478074517,776882.892401776,0.414327258826233,78,Shorter,Middle,66,L,Index
203,Spatial,3421,4,2,16,1600,15,20,2,m,m,-800,400,-800,800,S,=,L,0.464704385676689,0.349431636637344,1.99818712610907,1.62638819761353,1.08770601362437,776884.194728648,776884.678658846,776884.678658846,776885.478497383,0.8,776887.50865183,776887.50865183,776888.308391881,0.8,776890.078080604,776890.988351043,0.910270439111628,77,Longer,Ring,78,=,Middle
203,Spatial,3421,4,2,17,800,2.5,3.33333333333333,1,l,l,-1600,-1200,-1600,-800,L,S,=,0.373622049836982,0.37792145165454,1.2241566021806,1.2662679533175,1.02973836278273,776892.228098457,776892.618754233,776892.618754233,776894.218612275,1.6,776895.468916992,776895.468916992,776897.868688354,2.4,776899.278156483,776899.772236781,0.494080298114568,66,Longer,Index,66,L,Index
203,Spatial,3421,4,2,18,1200,5,5,1,l,l,-1600,-800,-1600,-400,L,S,=,0.246070235945521,0.258227960777642,1.00370651279172,1.43556368201804,1.28917600069679,776900.961514364,776901.219002406,776901.219002406,776902.818820027,1.6,776903.849088037,776903.849088037,776906.248919068,2.4,776907.828160885,776908.188179158,0.36001827288419,66,Longer,Index,66,L,Index
203,Spatial,3421,4,2,19,400,3.33333333333333,1.25,2,l,l,-1600,-800,-1600,-1200,S,=,L,0.438989374393972,0.323991770003119,1.16112235543433,1.20536249791087,1.2693772190757,776909.628245773,776910.078968548,776910.078968548,776912.478976982,2.4,776913.669131352,776913.669131352,776916.86894307,3.2,776918.211546364,776918.892248433,0.680702068493702,66,Shorter,Index,77,L,Ring
203,Spatial,3421,4,2,20,800,5,5,1,l,l,-1600,-1200,-1600,-800,L,S,=,0.307466500568469,0.24431026970949,1.24441732569332,1.74422223203277,1.15164575739717,776920.328282308,776920.649215011,776920.649215011,776921.449039753,0.8,776922.71938015,776922.71938015,776924.31913361,1.6,776926.21159673,776926.644035379,0.432438649004325,66,Longer,Index,66,L,Index
203,Spatial,3421,4,2,21,1200,3.33333333333333,7.5,1,r,r,0,800,0,1200,L,S,=,0.363156068659464,0.228993550458735,1.5423048925332,1.12083277298737,1.67763220674655,776927.961661612,776928.33937528,776928.33937528,776930.739177438,2.4,776932.319432633,776932.319432633,776933.919203096,1.6,776935.178350406,776935.868251492,0.689901086152531,66,Longer,Index,78,S,Middle
203,Spatial,3421,4,2,22,400,2.5,1.25,2,r,r,0,800,0,400,S,=,L,0.268692149896294,0.444467502268265,1.93281357979346,1.75408761554132,1.56361684366993,776937.711677412,776937.999515875,776937.999515875,776941.199324064,3.2,776943.159543387,776943.159543387,776946.359354463,3.2,776948.261716566,776948.788257305,0.526540739112534,66,Shorter,Index,77,L,Ring
203,Spatial,3421,4,2,23,1200,10,5,1,r,r,0,1600,0,1200,=,L,S,0.201753386751507,0.286958209793795,1.57338861069247,1.5998040639966,1.97237595817656,776950.511745037,776950.729687513,776950.729687513,776952.329532723,1.6,776953.929826485,776953.929826485,776956.32935949,2.4,776958.078464579,776958.492245096,0.413780517410487,77,Shorter,Ring,78,L,Middle
203,Spatial,3421,4,2,24,800,15,5,1,m,m,-800,400,-800,0,S,=,L,0.236689110946505,0.352114988351891,1.48696736531203,1.25188240874863,1.79149189814858,776960.611819816,776960.859655571,776960.859655571,776961.659478389,0.8,776963.17992842,776963.17992842,776964.779684126,1.6,776966.178453729,776968.28423076,2.10577703174204,66,Shorter,Index,77,L,Ring
203,Spatial,3421,4,2,25,800,5,5,1,l,l,-1600,-400,-1600,-800,S,=,L,0.399657852815433,0.41376147112328,1.28889485798989,1.01195589159354,1.38028906785001,776994.661991301,776995.080419214,776995.080419214,776997.479937784,2.4,776998.800286056,776998.800286056,777000.400063577,1.6,777001.561973945,777002.068348759,0.506374813965522,66,Shorter,Index,66,S,Index
203,Spatial,3421,4,2,26,1200,2.5,5,1,l,l,-1600,-800,-1600,-400,=,L,S,0.243049223473936,0.486962015104235,1.01435091241864,1.54319714578974,1.8067337575906,777003.595343112,777003.850223034,777003.850223034,777007.050090572,3.2,777008.0905835,777008.0905835,777010.490081859,2.4,777012.195404578,777013.356315899,1.16091132105794,78,Longer,Middle,66,=,Index
203,Spatial,3421,4,2,27,800,1.25,3.33333333333333,1,m,m,-800,-400,-800,0,S,=,L,0.24189301794525,0.290533700864136,1.93598418133531,1.49336087859494,1.68550612676215,777015.312088552,777015.570586477,777015.570586477,777018.770452411,3.2,777020.730689378,777020.730689378,777023.130522654,2.4,777024.778742001,777025.244241206,0.465499204583466,77,Longer,Ring,66,S,Index
203,Spatial,3421,4,2,28,1200,10,7.5,1,l,l,-1600,-800,-1600,-400,S,=,L,0.274404745460256,0.410555380451247,1.85613642176817,1.091373379327,1.22426500378621,777027.078824223,777027.370635816,777027.370635816,777028.170519266,0.8,777030.050828772,777030.050828772,777031.650616238,1.6,777032.87886073,777033.308370779,0.429510048939846,77,Longer,Ring,77,L,Ring
203,Spatial,3421,4,2,29,400,10,5,2,r,r,0,800,0,400,=,L,S,0.429157779730985,0.314270401660843,1.40988881234928,1.87667947284103,1.05756417103438,777034.67888248,777035.120653862,777035.120653862,777035.920405141,0.8,777037.350652107,777037.350652107,777038.150555767,0.8,777040.178892691,777041.132371826,0.953479134710506,77,Shorter,Ring,66,=,Index
203,Spatial,3421,4,2,30,1200,2.5,5,1,l,l,-1600,-800,-1600,-400,=,L,S,0.459988817876996,0.448263049920943,1.25705092026984,1.16381771512315,1.82550889027051,777042.362246836,777042.840781194,777042.840781194,777046.040749785,3.2,777047.330734482,777047.330734482,777049.73057257,2.4,777051.045571828,777051.660217908,0.614646080182865,78,Longer,Middle,78,L,Middle
203,Spatial,3421,4,2,31,1200,6.66666666666667,7.5,1,m,m,-800,800,-800,400,L,S,=,0.350308441697432,0.441659341057806,1.75008940018728,1.31035899416132,1.23746099526001,777053.628999349,777053.991193954,777053.991193954,777056.390707391,2.4,777058.180989311,777058.180989311,777059.780771323,1.6,777061.245670852,777062.228269444,0.982598591945134,78,Shorter,Middle,66,L,Index
203,Spatial,3421,4,2,32,400,1.66666666666667,1.25,2,l,l,-1600,-1200,-1600,-1200,S,=,L,0.421458766918856,0.279534144528782,1.20265513530609,1.32731738247032,1.3307729930548,777063.629022815,777064.061120417,777064.061120417,777066.461017532,2.4,777067.701146735,777067.701146735,777070.900991496,3.2,777072.379024178,777072.996100012,0.617075833375566,78,Equals to,Middle,77,L,Ring
203,Spatial,3421,4,2,33,800,7.5,3.33333333333333,1,l,l,-1600,-400,-1600,-800,=,L,S,0.46651184694659,0.376350901546828,1.68237334219538,1.4998789749587,1.48957335935258,777074.479049233,777074.961068094,777074.961068094,777076.561038416,1.6,777078.281358265,777078.281358265,777080.681145025,2.4,777082.329112554,777083.228099419,0.89898686518427,77,Shorter,Ring,78,L,Middle
203,Spatial,3421,4,2,34,800,3.75,3.33333333333333,1,m,m,-800,400,-800,0,L,S,=,0.210824292107299,0.297802187206419,1.70474512203631,1.05847572122392,1.5257500682003,777084.895807088,777085.121202112,777085.121202112,777088.321167173,3.2,777090.051367078,777090.051367078,777092.451307502,2.4,777093.64579209,777093.996194328,0.350402237381786,78,Shorter,Middle,78,S,Middle
203,Spatial,3421,4,2,35,400,5,5,2,m,m,-800,0,-800,-400,=,L,S,0.297448080200165,0.242403582105232,1.52581413529795,1.3510255821906,1.39035108896449,777095.679172164,777095.991698575,777095.991698575,777097.5915579,1.6,777099.151562799,777099.151562799,777099.951397807,0.8,777101.445833089,777102.116189618,0.670356529532,77,Shorter,Ring,77,S,Ring
203,Spatial,3421,4,2,36,800,15,5,1,l,l,-1600,-400,-1600,-800,L,S,=,0.380960195784018,0.285244645549507,1.82911740388458,1.72010357731523,1.23410254102761,777103.645907258,777104.041806541,777104.041806541,777104.84162166,0.8,777106.711559642,777106.711559642,777108.311466446,1.6,777110.179210821,777110.723966048,0.54475522658322,78,Shorter,Middle,66,L,Index
203,Spatial,3421,4,2,37,1200,3.33333333333333,7.5,1,m,m,-800,0,-800,400,L,S,=,0.343380391577114,0.47035268267398,1.1944901889575,1.78125432411964,1.86706410309872,777112.112600166,777112.4717686,777112.4717686,777114.871678227,2.4,777116.092045715,777116.092045715,777117.691503075,1.6,777119.629310086,777120.076172475,0.446862388518639,66,Longer,Index,78,S,Middle
203,Spatial,3421,4,2,38,800,5,5,1,l,l,-1600,-400,-1600,-800,=,L,S,0.342576152752649,0.33806314645215,1.71563700038934,1.31559846713559,1.11736888130355,777122.095962741,777122.452038324,777122.452038324,777124.851869354,2.4,777126.591888362,777126.591888362,777128.191791957,1.6,777129.66266338,777130.419987046,0.757323665660806,77,Shorter,Ring,77,S,Ring
203,Spatial,3421,4,2,39,1600,5,5,2,r,r,0,1600,0,1600,=,L,S,0.404604378140592,0.351518533669205,1.61815486961636,1.04379860524342,1.65740771615417,777131.679372666,777132.102174071,777132.102174071,777135.301762511,3.2,777136.941997386,777136.941997386,777140.141809104,3.2,777141.34609439,777141.732365282,0.386270891409367,66,Equals to,Index,78,L,Middle
203,Spatial,3421,4,2,40,1600,7.5,20,2,r,r,0,1200,0,1600,L,S,=,0.48795083408517,0.241341698234774,1.62068868638784,1.70553169014258,1.87143057648809,777143.546109331,777144.052133794,777144.052133794,777145.651906503,1.6,777147.30233614,777147.30233614,777148.102165695,0.8,777149.946083154,777150.36413801,0.418054856476374,66,Longer,Index,78,S,Middle
203,Spatial,3421,4,2,41,400,5,5,2,l,l,-1600,-800,-1600,-1200,S,=,L,0.432020468487686,0.454573488449461,1.43040775191769,1.80947181604081,1.30860532371493,777152.379499286,777152.822223449,777152.822223449,777154.422230343,1.6,777155.872434071,777155.872434071,777156.672118624,0.8,777158.612849232,777159.276093622,0.663244389579631,66,Shorter,Index,66,S,Index
203,Spatial,3421,4,2,42,1200,10,7.5,1,r,r,0,800,0,1200,L,S,=,0.224807562258449,0.381900909240581,1.04337184416717,1.60295489966894,1.20196313595597,777160.729531318,777160.97252072,777160.97252072,777161.77222837,0.8,777162.852522221,777162.852522221,777164.452307441,1.6,777166.196173219,777166.652250473,0.45607725426089,66,Longer,Index,66,L,Index
203,Spatial,3421,4,2,43,800,5,5,1,l,l,-1600,-1200,-1600,-800,S,=,L,0.25430361280745,0.212229671468307,1.10278160945508,1.93588954495824,1.68907084003059,777168.01287827,777168.282504811,777168.282504811,777169.08226796,0.8,777170.21243078,777170.21243078,777171.812437032,1.6,777173.896267639,777174.387863232,0.491595592582598,77,Longer,Ring,77,L,Ring
203,Spatial,3421,4,2,44,400,10,5,2,l,l,-1600,-800,-1600,-1200,L,S,=,0.363013850116938,0.370032866747597,1.40269451031801,1.32753140823927,1.61454694252461,777176.229590185,777176.612619219,777176.612619219,777177.41241541,0.8,777178.842475028,777178.842475028,777179.642534598,0.8,777181.129595928,777182.004176519,0.874580591684207,78,Shorter,Middle,78,S,Middle
203,Spatial,3421,4,2,45,1600,15,20,2,r,r,0,1200,0,1600,=,L,S,0.455790548606943,0.468681493431986,1.56737232226155,1.39438472322403,1.91933494969168,777183.762987422,777184.232683963,777184.232683963,777185.032734229,0.8,777186.632830698,777186.632830698,777187.432638117,0.8,777188.979626195,777189.412105265,0.432479070033878,78,Longer,Middle,66,=,Index
203,Spatial,3421,4,2,46,1200,6.66666666666667,7.5,1,r,r,0,1600,0,1200,=,L,S,0.286085744202538,0.320477697723941,1.05831547474961,1.55907456962009,1.35270413988445,777191.479672872,777191.783078565,777191.783078565,777194.182544523,2.4,777195.273012284,777195.273012284,777196.87277986,1.6,777198.579686057,777198.796188168,0.216502111288719,77,Shorter,Ring,66,=,Index
203,Spatial,3421,4,2,47,400,1.66666666666667,1.25,2,r,r,0,400,0,400,=,L,S,0.423898364454839,0.4547169409354,1.58139530598074,1.16706241071649,1.08446518095956,777200.296388188,777200.733064594,777200.733064594,777203.132846863,2.4,777204.74323273,777204.74323273,777207.942793902,3.2,777209.263118861,777209.652146854,0.389027992961928,66,Equals to,Index,78,L,Middle
203,Spatial,3421,4,2,48,1600,7.5,20,2,m,m,-800,400,-800,800,L,S,=,0.40420080603632,0.405083947588734,1.35697201328397,1.14140482218295,1.04588381280163,777210.879785922,777211.303076872,777211.303076872,777212.902958974,1.6,777214.283138716,777214.283138716,777215.082937474,0.8,777216.363168773,777216.988132898,0.62496412533801,66,Longer,Index,78,S,Middle
203,Spatial,3421,4,2,49,1200,3.33333333333333,7.5,1,m,m,-800,0,-800,400,=,L,S,0.256593880067005,0.206016960825109,1.01438057917625,1.24950975309754,1.78077481031586,777235.563243037,777235.833219253,777235.833219253,777238.233232499,2.4,777239.273351693,777239.273351693,777240.873419539,1.6,777242.279938111,777242.843944336,0.564006224856712,78,Longer,Middle,77,S,Ring
203,Spatial,3421,4,2,50,1200,5,5,1,m,m,-800,800,-800,400,S,=,L,0.354528598776382,0.254191739049452,1.22938206987707,1.98807354263061,1.61423237645664,777244.779972918,777245.15367143,777245.15367143,777248.35330414,3.2,777249.603504597,777249.603504597,777252.00342064,2.4,777254.129978644,777254.83612447,0.706145825679414,66,Shorter,Index,78,=,Middle
203,Spatial,3421,4,2,51,800,2.5,3.33333333333333,1,r,r,0,400,0,800,S,=,L,0.311297493604786,0.488166102417721,1.92979913801677,1.42421838816202,1.72554210050943,777256.596685347,777256.923872402,777256.923872402,777258.523428249,1.6,777260.493697331,777260.493697331,777262.893577765,2.4,777264.463424768,777265.124170206,0.66074543830473,77,Longer,Ring,77,L,Ring
203,Spatial,3421,4,2,52,400,3.33333333333333,1.25,2,r,r,0,800,0,400,=,L,S,0.486042512914175,0.255590302427916,1.89818245352661,1.11051069104061,1.38455695812429,777267.013413367,777267.513842404,777267.513842404,777269.913692041,2.4,777271.843881744,777271.843881744,777275.043753452,3.2,777276.31342822,777276.812394436,0.498966215993278,77,Shorter,Ring,78,L,Middle
203,Spatial,3421,4,2,53,1200,10,5,1,r,r,0,1600,0,1200,L,S,=,0.268746350524624,0.276291246207675,1.95368936483754,1.862484676853,1.96879822234,777278.346829146,777278.633889986,777278.633889986,777280.233825662,1.6,777282.213972553,777282.213972553,777284.613919073,2.4,777286.63013696,777287.148113894,0.517976933741011,78,Shorter,Middle,66,L,Index
203,Spatial,3421,4,2,54,1200,20,7.5,1,l,l,-1600,0,-1600,-400,=,L,S,0.230665338980515,0.300948531177909,1.97219205028242,1.54058995582967,1.15992119156337,777289.280171013,777289.52406668,777289.52406668,777290.324127854,0.8,777292.334329388,777292.334329388,777293.934193846,1.6,777295.613526482,777296.020089574,0.406563092605211,77,Shorter,Ring,78,L,Middle
203,Spatial,3421,4,2,55,400,2.5,5,2,r,r,0,400,0,400,L,S,=,0.370082943162,0.228857089872757,1.25471492181454,1.98734972023441,1.51457976043405,777297.313589904,777297.694272272,777297.694272272,777299.29424869,1.6,777300.584302039,777300.584302039,777301.384083795,0.8,777303.513624365,777304.276098113,0.762473748181947,77,Equals to,Ring,78,S,Middle
203,Spatial,3421,4,2,56,1200,5,5,1,m,m,-800,800,-800,400,=,L,S,0.345383506391171,0.418452323280355,1.16314258334298,1.22885564455184,1.49566827105111,777305.963656679,777306.324517022,777306.324517022,777309.524455777,3.2,777310.724618844,777310.724618844,777313.124498316,2.4,777314.51367049,777315.476012523,0.962342033162713,77,Shorter,Ring,77,S,Ring
203,Spatial,3421,4,2,57,1200,5,5,1,m,m,-800,800,-800,400,=,L,S,0.424195949517092,0.457987204150723,1.17099546545062,1.31502076528737,1.36145508265292,777317.130327677,777317.574685362,777317.574685362,777320.774540068,3.2,777321.984705737,777321.984705737,777324.384562752,2.4,777325.847070703,777327.035871742,1.18880103901029,77,Shorter,Ring,77,S,Ring
203,Spatial,3421,4,2,58,1600,5,5,2,l,l,-1600,-400,-1600,0,=,L,S,0.272473332226278,0.487083804451968,1.73613497002045,1.82475504072847,1.35070034347787,777328.547074945,777328.834731513,777328.834731513,777331.234543295,2.4,777332.994652839,777332.994652839,777336.194537059,3.2,777338.163743039,777338.588067968,0.424324928666465,78,Longer,Middle,78,L,Middle
203,Spatial,3421,4,2,59,800,3.75,3.33333333333333,1,l,l,-1600,-400,-1600,-800,S,=,L,0.305104488193022,0.32632025140813,1.58934475554389,1.50728546390616,1.60303508028058,777340.080479881,777340.404983108,777340.404983108,777343.604833964,3.2,777345.215105305,777345.215105305,777347.614679694,2.4,777349.263850182,777349.66816834,0.404318158281967,66,Shorter,Index,78,=,Middle
203,Spatial,3421,4,2,60,1200,10,5,1,m,m,-800,800,-800,400,S,=,L,0.360245251746383,0.433841015267605,1.76672862227949,1.53518057379632,1.68892604113453,777351.413853956,777351.784753472,777351.784753472,777353.384734702,1.6,777355.175041324,777355.175041324,777357.574925608,2.4,777359.26385471,777359.620016945,0.356162234558724,66,Shorter,Index,77,L,Ring
203,Spatial,3421,4,2,61,800,7.5,3.33333333333333,1,l,l,-1600,-400,-1600,-800,S,=,L,0.273923502525408,0.309947343474489,1.05138249983549,1.75137275513441,1.06474423503354,777361.447240126,777361.735249576,777361.735249576,777363.335017793,1.6,777364.415343404,777364.415343404,777366.8151446,2.4,777368.713915005,777369.251970285,0.538055279874243,66,Shorter,Index,77,L,Ring
203,Spatial,3421,4,2,62,1200,10,7.5,1,r,r,0,800,0,1200,L,S,=,0.304735437308784,0.262571499264144,1.12699510954901,1.56170832919957,1.04488812250422,777370.463942032,777370.785238203,777370.785238203,777371.584969593,0.8,777372.73518734,777372.73518734,777374.335065914,1.6,777376.047273361,777376.548046654,0.500773292966187,66,Longer,Index,66,L,Index
203,Spatial,3421,4,2,63,1600,6.66666666666667,5,2,l,l,-1600,0,-1600,0,S,=,L,0.421521528199067,0.338068742928317,1.72851277696796,1.43535338550271,1.48534413194425,777377.747329084,777378.185460006,777378.185460006,777380.585286545,2.4,777382.345453192,777382.345453192,777385.54530469,3.2,777387.130716737,777387.604154256,0.473437518696301,78,Equals to,Middle,77,L,Ring
203,Spatial,3421,4,2,64,800,1.25,3.33333333333333,1,m,m,-800,-400,-800,0,=,L,S,0.264509611987436,0.247988066486209,1.57682491248634,1.53337819192102,1.90400641008054,777389.230739939,777389.505399541,777389.505399541,777392.705483299,3.2,777394.30569269,777394.30569269,777396.705520191,2.4,777398.380738223,777398.836125753,0.455387530149892,78,Longer,Middle,78,L,Middle
203,Spatial,3421,4,2,65,400,1.25,1.25,2,r,r,0,400,0,400,L,S,=,0.385969687322911,0.267676327827506,1.3244949739798,1.22096151880227,1.17198409835389,777400.880792599,777401.285938033,777401.285938033,777404.485426383,3.2,777405.836041668,777405.836041668,777409.035538359,3.2,777410.397515303,777410.867972715,0.470457412302494,77,Equals to,Ring,66,L,Index
203,Spatial,3421,4,2,66,400,2.5,1.25,2,r,r,0,800,0,400,S,=,L,0.246900999546914,0.291214394530684,1.043449176786,1.99713510752296,1.6348415194674,777412.18084691,777412.445799369,777412.445799369,777415.645611408,3.2,777416.725958833,777416.725958833,777419.925840486,3.2,777422.080857465,777422.604036521,0.52317905658856,66,Shorter,Index,77,L,Ring
203,Spatial,3421,4,2,67,800,1.66666666666667,5,1,r,r,0,400,0,800,L,S,=,0.384288848457868,0.36126214624056,1.55658424397032,1.05596401860944,1.49220191613528,777424.380905681,777424.77607129,777424.77607129,777427.175955574,2.4,777428.766000037,777428.766000037,777430.365789748,1.6,777431.56429327,777432.027964618,0.463671348057687,66,Longer,Index,78,S,Middle
203,Spatial,3421,4,2,68,1200,20,7.5,1,m,m,-800,800,-800,400,S,=,L,0.305510746301003,0.401967550084267,1.77449071460417,1.13990146047055,1.90693755627522,777433.664305565,777433.986258417,777433.986258417,777434.786012584,0.8,777436.586381477,777436.586381477,777438.186168301,1.6,777439.464275666,777440.3479789,0.883703233906999,66,Shorter,Index,77,L,Ring
203,Spatial,3421,4,2,69,1200,3.33333333333333,7.5,1,l,l,-1600,-800,-1600,-400,=,L,S,0.433452153534896,0.471623773487059,1.14947388807443,1.72346525515764,1.60359926687523,777442.414346387,777442.866444701,777442.866444701,777445.266272523,2.4,777446.446521494,777446.446521494,777448.046309922,1.6,777449.914383082,777450.396018336,0.481635253876448,78,Longer,Middle,77,S,Ring
203,Spatial,3421,4,2,70,400,2.5,5,2,r,r,0,400,0,400,=,L,S,0.276856098964671,0.281357105423778,1.18494279807124,1.17085666812114,1.32016687983987,777452.147698776,777452.436198412,777452.436198412,777454.036235782,1.6,777455.246526563,777455.246526563,777456.04629709,0.8,777457.364396897,777457.788111019,0.423714121920057,66,Equals to,Index,77,S,Ring
203,Spatial,3421,4,2,71,1600,20,20,2,m,m,-800,800,-800,800,S,=,L,0.302518489307871,0.3673948441758,1.56801846856789,1.68114749369873,1.46635251271486,777459.24775976,777459.566733647,777459.566733647,777460.366204224,0.8,777461.966470397,777461.966470397,777462.766256002,0.8,777464.597741106,777464.972232996,0.374491889961064,78,Equals to,Middle,78,=,Middle
203,Spatial,3421,4,2,72,800,5,5,1,r,r,0,1200,0,800,S,=,L,0.374032311205502,0.448049462903827,1.78262842286919,1.12324894913777,1.6593928164065,777466.597782489,777466.986620603,777466.986620603,777469.386427252,2.4,777471.196624552,777471.196624552,777472.79647297,1.6,777474.0644924,777475.179856595,1.11536419508047,66,Shorter,Index,66,S,Index
203,Spatial,3421,4,2,73,1200,5,5,1,r,r,0,1600,0,1200,S,=,L,0.427089013706992,0.467323687432759,1.88539442703287,1.99596029547664,1.14574422291804,777507.431336053,777507.876920485,777507.876920485,777511.076995902,3.2,777512.99720161,777512.99720161,777515.397041623,2.4,777517.548018102,777518.147995197,0.599977094796486,66,Shorter,Index,78,=,Middle
203,Spatial,3421,4,2,74,1600,5,5,2,l,l,-1600,0,-1600,0,S,=,L,0.296772848582723,0.271594865739666,1.32659067073013,1.00532059312952,1.86794257725649,777519.448074531,777519.757365976,777519.757365976,777522.957138557,3.2,777524.307675245,777524.307675245,777527.5071174,3.2,777528.648072671,777530.179992615,1.53191994456574,78,Equals to,Middle,77,L,Ring
203,Spatial,3421,4,2,75,1200,2.5,5,1,l,l,-1600,-800,-1600,-400,L,S,=,0.495662711237804,0.304904591684014,1.37375603071552,1.09857779469875,1.90667072444196,777532.19817406,777532.707541599,777532.707541599,777535.907464315,3.2,777537.307645731,777537.307645731,777539.707353574,2.4,777540.948018551,777541.467897198,0.51987864705734,66,Longer,Index,66,L,Index
203,Spatial,3421,4,2,76,1200,20,7.5,1,l,l,-1600,0,-1600,-400,=,L,S,0.24754929881368,0.209776739694071,1.57963502227781,1.16544053614692,1.2180927328509,777543.514860664,777543.777605686,777543.777605686,777544.577513837,0.8,777546.197872471,777546.197872471,777547.797616949,1.6,777549.114852516,777550.395975027,1.28112251125276,77,Shorter,Ring,78,L,Middle
203,Spatial,3421,4,2,77,800,3.75,3.33333333333333,1,r,r,0,1200,0,800,L,S,=,0.376595821987488,0.238653280189214,1.31091027517757,1.83891235107196,1.91606225284456,777551.764905176,777552.157894465,777552.157894465,777555.357633041,3.2,777556.707896085,777556.707896085,777559.107627026,2.4,777561.081590818,777561.531903584,0.450312765780836,78,Shorter,Middle,78,S,Middle
203,Spatial,3421,4,2,78,800,5,5,1,m,m,-800,400,-800,0,L,S,=,0.406203521079391,0.380440803680135,1.02004380999694,1.2138668431301,1.5653983484073,777563.598289035,777564.018032878,777564.018032878,777566.417906255,2.4,777567.468070717,777567.468070717,777569.067882243,1.6,777570.431652684,777571.851966948,1.42031426401809,78,Shorter,Middle,78,S,Middle
203,Spatial,3421,4,2,79,1200,10,7.5,1,r,r,0,800,0,1200,=,L,S,0.252108348176705,0.226496108924823,1.96214299456145,1.24672538321731,1.27710293410197,777573.5650206,777573.827867637,777573.827867637,777574.627736971,0.8,777576.628135121,777576.628135121,777578.227956592,1.6,777579.631728112,777580.187889794,0.55616168200504,78,Longer,Middle,78,L,Middle
203,Spatial,3421,4,2,80,1600,3.75,5,2,l,l,-1600,-400,-1600,0,L,S,=,0.373680229383847,0.444709136992905,1.60241499305657,1.62418658169049,1.98021252538375,777581.615050932,777582.00819966,777582.00819966,777585.208026777,3.2,777586.848387085,777586.848387085,777590.04821324,3.2,777591.815106816,777592.292173494,0.477066677762195,66,Longer,Index,66,L,Index
203,Spatial,3421,4,2,81,1600,3.75,5,2,m,m,-800,400,-800,800,=,L,S,0.45886928244656,0.342242131295176,1.97438897376258,1.84622064404886,1.37129560063823,777594.431811802,777594.908239728,777594.908239728,777598.108248098,3.2,777600.118318103,777600.118318103,777603.318335776,3.2,777605.315197916,777606.155758923,0.84056100610178,78,Longer,Middle,78,L,Middle
203,Spatial,3421,4,2,82,800,1.66666666666667,5,1,m,m,-800,-400,-800,0,S,=,L,0.327980614605786,0.438371629637543,1.45944708691387,1.55139854589792,1.86257703823122,777607.665224983,777608.008297825,777608.008297825,777610.408305938,2.4,777611.908519467,777611.908519467,777613.508284156,1.6,777615.215206393,777615.81992943,0.604723037336953,77,Longer,Ring,66,S,Index
203,Spatial,3421,4,2,83,1600,10,20,2,l,l,-1600,0,-1600,0,S,=,L,0.222246392616094,0.39856048238751,1.50359885560898,1.89095880453086,1.7984529523133,777617.81526156,777618.048503601,777618.048503601,777619.64832058,1.6,777621.188736034,777621.188736034,777621.988496617,0.8,777624.015299372,777624.451655322,0.43635594996158,78,Equals to,Middle,66,S,Index
203,Spatial,3421,4,2,84,800,2.5,3.33333333333333,1,r,r,0,400,0,800,=,L,S,0.358212620072498,0.344509707712095,1.21993502220411,1.59577075030678,1.62262579853034,777626.398619397,777626.768863515,777626.768863515,777628.3686991,1.6,777629.618938694,777629.618938694,777632.01874759,2.4,777633.76531484,777634.147912109,0.382597269490361,78,Longer,Middle,78,L,Middle
203,Spatial,3421,4,2,85,800,1.25,3.33333333333333,1,m,m,-800,-400,-800,0,S,=,L,0.463389517117328,0.231108011330913,1.63039389454699,1.21588106188869,1.45890103550471,777635.915363169,777636.388888158,777636.388888158,777639.588664589,3.2,777641.248919424,777641.248919424,777643.648717412,2.4,777645.015359351,777645.460027608,0.444668257143348,77,Longer,Ring,78,=,Middle
203,Spatial,3421,4,2,86,400,5,5,2,r,r,0,400,0,400,L,S,=,0.258933185242802,0.411300880132734,1.83807071129773,1.48246980003522,1.04070627095928,777647.065433633,777647.338965295,777647.338965295,777648.138814098,0.8,777649.999294201,777649.999294201,777650.799055104,0.8,777652.43206716,777653.179854991,0.747787830652669,77,Equals to,Ring,77,=,Ring
203,Spatial,3421,4,2,87,800,5,5,1,m,m,-800,-400,-800,0,L,S,=,0.484543791246907,0.334098168102338,1.23120206006696,1.00943617325845,1.59185421671447,777654.365451052,777654.868975186,777654.868975186,777655.668920871,0.8,777656.929282726,777656.929282726,777658.529056717,1.6,777659.682150274,777660.171903917,0.489753643632866,66,Longer,Index,66,L,Index
203,Spatial,3421,4,2,88,1200,6.66666666666667,7.5,1,r,r,0,1600,0,1200,=,L,S,0.428515321000732,0.445989707120512,1.52078747160713,1.19649513071124,1.83601841129071,777661.915498499,777662.359294829,777662.359294829,777664.759171093,2.4,777666.319368152,777666.319368152,777667.919214645,1.6,777669.265505877,777669.715920979,0.450415101600811,77,Shorter,Ring,77,S,Ring
203,Spatial,3421,4,2,89,800,1.66666666666667,5,1,l,l,-1600,-1200,-1600,-800,L,S,=,0.21104417163677,0.338581366683769,1.51606046651368,1.76457357658235,1.23801277322827,777671.69887838,777671.929599036,777671.929599036,777674.329393816,2.4,777675.87949107,777675.87949107,777677.479239077,1.6,777679.398937976,777679.915881584,0.51694360806141,66,Longer,Index,78,S,Middle
203,Spatial,3421,4,2,90,1600,10,20,2,r,r,0,1600,0,1600,S,=,L,0.23644005351685,0.254579668053912,1.1630518560408,1.24023438963835,1.78599795656345,777681.298918994,777681.549638758,777681.549638758,777683.149421091,1.6,777684.339738749,777684.339738749,777685.139549055,0.8,777686.515545576,777686.875690245,0.360144668840803,78,Equals to,Middle,66,S,Index
203,Spatial,3421,4,2,91,1200,5,5,1,l,l,-1600,-800,-1600,-400,L,S,=,0.352882859690009,0.358338438063837,1.90267701428744,1.66242221041627,1.6260952616856,777688.815637422,777689.17982448,777689.17982448,777690.779342792,1.6,777692.719733994,777692.719733994,777695.119592293,2.4,777696.932335569,777697.331890046,0.39955447637476,66,Longer,Index,66,L,Index
203,Spatial,3421,4,2,92,800,3.75,3.33333333333333,1,m,m,-800,400,-800,0,=,L,S,0.481904757159858,0.303400197092816,1.63244639740541,1.2378410789937,1.285187214451,777699.115672486,777699.609914218,777699.609914218,777702.80977566,3.2,777704.479750471,777704.479750471,777706.879752489,2.4,777708.265688093,777708.739835153,0.474147060071118,77,Shorter,Ring,77,S,Ring
203,Spatial,3421,4,2,93,800,1.66666666666667,5,1,m,m,-800,-400,-800,0,L,S,=,0.474145266072324,0.335631953909833,1.00984978990902,1.27457598062185,1.05342555507549,777710.165754787,777710.659921772,777710.659921772,777713.059827229,2.4,777714.110052644,777714.110052644,777715.709908761,1.6,777717.132241901,777717.571898271,0.43965636997018,66,Longer,Index,77,=,Ring
203,Spatial,3421,4,2,94,1600,5,5,2,m,m,-800,400,-800,800,=,L,S,0.265063168713277,0.322996332389724,1.49592967608586,1.84785614647831,1.2343152808076,777718.765780002,777719.050204813,777719.050204813,777721.449997989,2.4,777722.980261027,777722.980261027,777726.179852996,3.2,777728.18251091,777728.603832491,0.421321581816301,78,Longer,Middle,78,L,Middle
203,Spatial,3421,4,2,95,400,1.25,1.25,2,r,r,0,400,0,400,L,S,=,0.317342031546008,0.33261877193608,1.83611347350429,1.36989194111324,1.83105899715486,777729.982520101,777730.320222768,777730.320222768,777733.520013634,3.2,777735.380124173,777735.380124173,777738.580165585,3.2,777740.09918712,777740.811775609,0.712588489172049,77,Equals to,Ring,66,L,Index
203,Spatial,3421,4,2,96,1200,5,5,1,m,m,-800,0,-800,400,S,=,L,0.38429379761549,0.227180649349598,1.0059174761684,1.6982854040242,1.81152620681778,777742.799220708,777743.200327888,777743.200327888,777744.800127544,1.6,777745.840351961,777745.840351961,777748.240147704,2.4,777750.082575038,777750.651967526,0.569392487872392,77,Longer,Ring,77,L,Ring
