Subject,Task,SequenceOrder,ListNo,RunNo,TrialNo,Aud_Probe_Dist,Aud_Standard_Vel,Aud_Probe_Vel,Main_Control,Aud_Std_StartCode,Aud_Probe_StartCode,Aud_Std_StartPt,Aud_Std_EndPt,Aud_Probe_StartPt,Aud_Probe_EndPt,RespIndex,RespMiddle,RespRing,ISI_Cross_Std,ISI_Cross_Probe,ISI_Std_Probe,ISI_Probe_Response,ITI,TrialOnset,StdOnset,StdOnsetByStop,StdOffset,StdDur,ProbeOnset,ProbeOnsetByStop,ProbeOffset,ProbeDur,RespWinStart,RespTime,RT,CorrectKC,CorrectResponse,CorrectFinger,SubjRespKC,SubjResponse,SubjRespFinger
224,Spatial,1243,1,0,1,1600,10,20,2,m,m,-800,800,-800,800,S,=,L,0.276607022905753,0.217547988012385,1.95442606864974,1.9669267982102,1.16769763639371,694740.227701202,694740.515510419,694740.515510419,694742.117075696,1.6,694744.097386187,694744.097386187,694744.897351881,0.8,694747.011098434,694747.685427177,0.674328743247315,78,Equals to,Middle,66,S,Index
224,Spatial,1243,1,0,2,800,2.5,3.33333333333333,1,l,l,-1600,-1200,-1600,-800,S,=,L,0.317237861817883,0.432399399792028,1.1345100313248,1.1379274513743,1.79601246185723,694749.02781483,694749.357500919,694749.357500919,694750.957316541,1.6,694752.127659966,694752.127659966,694754.527240826,2.4,694755.811153714,694756.333555008,0.522401293972507,77,Longer,Ring,77,L,Ring
224,Spatial,1243,1,0,3,400,2.5,1.25,2,l,l,-1600,-800,-1600,-1200,S,=,L,0.315050599309295,0.491592464485306,1.32537593910554,1.44483447584804,1.03029250935311,694758.294545144,694758.627383756,694758.627383756,694761.827375306,3.2,694763.187529028,694763.187529028,694766.387598854,3.2,694767.977882937,694768.557512449,0.579629512038082,66,Shorter,Index,78,=,Middle
224,Spatial,1243,1,0,4,800,5,5,1,m,m,-800,-400,-800,0,L,S,=,0.292641491393697,0.257753564611848,1.12508274223576,1.69767152719331,1.64834993748266,694769.744623837,694770.047944159,694770.047944159,694770.847489922,0.8,694771.997669327,694771.997669327,694773.597720418,1.6,694775.444623773,694776.4614954,1.01687162718736,66,Longer,Index,66,L,Index
224,Spatial,1243,1,0,5,800,2.5,3.33333333333333,1,r,r,0,400,0,800,=,L,S,0.2093222615054,0.282345177079665,1.95854578319001,1.87658505280367,1.13242379525229,694778.261310682,694778.487858877,694778.487858877,694780.087898419,1.6,694782.088077792,694782.088077792,694784.48796598,2.4,694786.528001216,694787.053480928,0.525479711475782,78,Longer,Middle,78,L,Middle
224,Spatial,1243,1,0,6,800,1.25,3.33333333333333,1,r,r,0,400,0,800,=,L,S,0.305108523379453,0.495256629379901,1.35075353972499,1.64873513367624,1.29470983322407,694788.344749078,694788.668126272,694788.668126272,694791.867836799,3.2,694793.247930942,694793.247930942,694795.647913766,2.4,694797.444741186,694797.997690866,0.552949679549783,78,Longer,Middle,66,=,Index
224,Spatial,1243,1,0,7,800,7.5,3.33333333333333,1,l,l,-1600,-400,-1600,-800,=,L,S,0.267716664559556,0.244456478495003,1.08658175419542,1.32101496950241,1.04959484969523,694799.428190361,694799.708024115,694799.708024115,694801.308011046,1.6,694802.428211169,694802.428211169,694804.828215487,2.4,694806.294802428,694807.14167682,0.846874392475002,77,Shorter,Ring,78,L,Middle
224,Spatial,1243,1,0,8,1200,10,7.5,1,m,m,-800,0,-800,400,=,L,S,0.381965811651353,0.250566389454658,1.41688519941465,1.14903155268513,1.51478418131145,694808.344868737,694808.738405684,694808.738405684,694809.538241773,0.8,694810.998380225,694810.998380225,694812.59821285,1.6,694813.89488404,694814.50955413,0.614670090260915,78,Longer,Middle,78,L,Middle
224,Spatial,1243,1,0,9,1600,5,5,2,l,l,-1600,0,-1600,0,L,S,=,0.220770374166796,0.413607586445356,1.52466643202914,1.22478309925043,1.25531166985572,694816.178284517,694816.418491826,694816.418491826,694819.618315917,3.2,694821.168472096,694821.168472096,694824.368418092,3.2,694825.728277042,694826.157540808,0.429263765458018,77,Equals to,Ring,77,=,Ring
224,Spatial,1243,1,0,10,800,1.25,3.33333333333333,1,l,l,-1600,-1200,-1600,-800,S,=,L,0.416395058565978,0.432230007191809,1.22857420066204,1.71374597046971,1.66082906031365,694827.56168801,694827.988620461,694827.988620461,694831.188493635,3.2,694832.458656256,694832.458656256,694834.858508835,2.4,694836.728394777,694837.05360957,0.325214793090709,77,Longer,Ring,78,=,Middle
224,Spatial,1243,1,0,11,1200,3.33333333333333,7.5,1,r,r,0,800,0,1200,L,S,=,0.438111798079217,0.366528715011734,1.8587899678561,1.6475070450728,1.04080961508287,694838.861739081,694839.318612319,694839.318612319,694841.718643264,2.4,694843.598883371,694843.598883371,694845.198760587,1.6,694846.995053552,694849.205615257,2.21056170528755,66,Longer,Index,77,=,Ring
224,Spatial,1243,1,0,12,800,5,5,1,l,l,-1600,-400,-1600,-800,=,L,S,0.489277484665774,0.439055791070978,1.72320419657923,1.2846113672119,1.87566503959205,694850.395176932,694850.899177932,694850.899177932,694853.298802099,2.4,694855.048964951,694855.048964951,694856.648976904,1.6,694858.078490023,694859.557466574,1.47897655132692,77,Shorter,Ring,66,=,Index
224,Spatial,1243,1,0,13,1200,3.33333333333333,7.5,1,m,m,-800,0,-800,400,=,L,S,0.252484133301561,0.383936578006809,1.28973726263284,1.9031814752539,1.78270144953167,694861.595214081,694861.859233251,694861.859233251,694864.259092887,2.4,694865.579379883,694865.579379883,694867.179190052,1.6,694869.228630119,694869.661459727,0.43282960774377,78,Longer,Middle,78,L,Middle
224,Spatial,1243,1,0,14,400,2.5,5,2,l,l,-1600,-1200,-1600,-1200,=,L,S,0.397356902307519,0.20290927098732,1.11792045954593,1.45124816118539,1.88020778615027,694871.595272788,694872.009325674,694872.009325674,694873.609268975,1.6,694874.759285734,694874.759285734,694875.559217102,0.8,694877.161947346,694878.301532857,1.1395855108276,66,Equals to,Index,77,S,Ring
224,Spatial,1243,1,0,15,400,1.66666666666667,1.25,2,r,r,0,400,0,400,=,L,S,0.429316278020557,0.203053011238475,1.91607238849227,1.70129101424719,1.23125712526587,694880.34536566,694880.789319232,694880.789319232,694883.189337345,2.4,694885.139672403,694885.139672403,694888.339560014,3.2,694890.19542926,694890.661391396,0.465962135582231,66,Equals to,Index,66,=,Index
224,Spatial,1243,1,0,16,1200,6.66666666666667,7.5,1,m,m,-800,800,-800,400,S,=,L,0.425727731581822,0.383435413589018,1.88146093487034,1.28041610104172,1.79034130897623,694892.045410187,694892.489649273,694892.489649273,694894.889522383,2.4,694896.809749197,694896.809749197,694898.409616789,1.6,694899.845509652,694900.525572744,0.680063091916963,66,Shorter,Index,66,S,Index
224,Spatial,1243,1,0,17,1200,20,7.5,1,l,l,-1600,0,-1600,-400,L,S,=,0.380807741404898,0.247142178839944,1.48710157754609,1.44897005622926,1.5436061834959,694902.462177425,694902.859743005,694902.859743005,694903.659619516,0.8,694905.180022257,694905.180022257,694906.779580917,1.6,694908.37888097,694908.885406902,0.506525931879878,78,Shorter,Middle,66,L,Index
224,Spatial,1243,1,0,18,1600,5,5,2,l,l,-1600,-400,-1600,0,L,S,=,0.307935286605445,0.26599650189953,1.74058091923331,1.53362912189179,1.16670562419874,694910.595541299,694910.919836949,694910.919836949,694913.319701397,2.4,694915.080001277,694915.080001277,694918.279923854,3.2,694919.962280403,694920.421664925,0.45938452181872,66,Longer,Index,66,L,Index
224,Spatial,1243,1,0,19,800,5,5,1,m,m,-800,400,-800,0,S,=,L,0.339392522550369,0.206490651785028,1.04587586244133,1.74956578461328,1.19903279066952,694921.745653933,694922.099996875,694922.099996875,694924.499852662,2.4,694925.570148801,694925.570148801,694927.170042378,1.6,694929.06229593,694930.533596648,1.4713007180253,66,Shorter,Index,78,=,Middle
224,Spatial,1243,1,0,20,1600,5,5,2,l,l,-1600,-400,-1600,0,=,L,S,0.421418042400467,0.457306614832326,1.94807733016714,1.7120479164085,1.62650819207918,694931.879062077,694932.320442816,694932.320442816,694934.720054151,2.4,694936.690274132,694936.690274132,694939.890154684,3.2,694941.762412958,694942.245625702,0.483212743885815,78,Longer,Middle,66,=,Index
