Subject,Task,SequenceOrder,ListNo,RunNo,TrialNo,Aud_Probe_Dist,Aud_Standard_Vel,Aud_Probe_Vel,Main_Control,Aud_Std_StartCode,Aud_Probe_StartCode,Aud_Std_StartPt,Aud_Std_EndPt,Aud_Probe_StartPt,Aud_Probe_EndPt,RespIndex,RespMiddle,RespRing,ISI_Cross_Std,ISI_Cross_Probe,ISI_Std_Probe,ISI_Probe_Response,ITI,TrialOnset,StdOnset,StdOnsetByStop,StdOffset,StdDur,ProbeOnset,ProbeOnsetByStop,ProbeOffset,ProbeDur,RespWinStart,RespTime,RT,CorrectKC,CorrectResponse,CorrectFinger,SubjRespKC,SubjResponse,SubjRespFinger
217,Temporal,1243,2,2,1,1200,5,5,1,r,r,0,1600,0,1200,L,S,=,0.466012386271306,0.447804094901407,1.98801987400087,1.42917176673692,1.3232205866179,179865.151727231,179865.628944779,179865.628944779,179868.83011239,3.2,179870.85037879,179870.85037879,179873.250260241,2.4,179874.835129793,179877.101708079,2.26657828607131,78,Shorter,Middle,77,=,Ring
217,Temporal,1243,2,2,2,1200,3.33333333333333,7.5,1,r,r,0,800,0,1200,=,L,S,0.404351704189667,0.3868620595162,1.93083490670203,1.70994611519622,1.73098488287017,179878.568535853,179878.990661404,179878.990661404,179881.390543497,2.4,179883.350480805,179883.350480805,179884.950472227,1.6,179886.818519331,179887.677732096,0.859212764335098,77,Shorter,Ring,77,S,Ring
217,Temporal,1243,2,2,3,400,2.5,1.25,2,r,r,0,800,0,400,S,=,L,0.362617441299984,0.45854812019217,1.97685413485435,1.19101496862001,1.55614263821038,179889.568602259,179889.950800774,179889.950800774,179893.150749336,3.2,179895.160878388,179895.160878388,179898.360780435,3.2,179899.685261964,179900.741801099,1.05653913496644,78,Equals to,Middle,77,L,Ring
217,Temporal,1243,2,2,4,400,10,5,2,l,l,-1600,-800,-1600,-1200,S,=,L,0.334011486345187,0.445341520916397,1.43540336823258,1.9510341763958,1.58314534391495,179902.452013451,179902.801047759,179902.801047759,179903.600656079,0.8,179905.071141042,179905.071141042,179905.870758665,0.8,179907.968656667,179909.413977222,1.44532055512536,78,Equals to,Middle,78,=,Middle
217,Temporal,1243,2,2,5,800,1.66666666666667,5,1,l,l,-1600,-1200,-1600,-800,S,=,L,0.297288605319127,0.495747328552673,1.8910528456124,1.33645392648016,1.42720160119243,179911.152037447,179911.460874603,179911.460874603,179913.860804816,2.4,179915.771253259,179915.771253259,179917.3711324,1.6,179918.85211245,179919.29369149,0.441579039557837,66,Shorter,Index,66,S,Index
217,Temporal,1243,2,2,6,800,5,5,1,m,m,-800,400,-800,0,L,S,=,0.231497093427145,0.342356729629704,1.19853604905463,1.97968374406238,1.78795812556878,179920.868794483,179921.111271467,179921.111271467,179923.511130462,2.4,179924.731140798,179924.731140798,179926.331021864,1.6,179928.468752586,179929.589721627,1.12096904066857,78,Shorter,Middle,78,S,Middle
217,Temporal,1243,2,2,7,400,5,5,2,r,r,0,400,0,400,L,S,=,0.355843978723555,0.313030116956378,1.68283238535465,1.48604973472291,1.20510385432436,179931.518821142,179931.891284274,179931.891284274,179932.691277556,0.8,179934.401558284,179934.401558284,179935.201372558,0.8,179936.835497144,179937.26176173,0.426264586072648,77,Equals to,Ring,77,=,Ring
217,Temporal,1243,2,2,8,1600,5,5,2,l,l,-1600,0,-1600,0,=,L,S,0.488801227134302,0.431513946999071,1.70474721337266,1.41071099595815,1.18016570585924,179938.618908528,179939.121398871,179939.121398871,179942.321345508,3.2,179944.051477474,179944.051477474,179947.251357385,3.2,179948.818926429,179950.245707828,1.42678139836062,66,Equals to,Index,77,S,Ring
217,Temporal,1243,2,2,9,1200,2.5,5,1,m,m,-800,0,-800,400,S,=,L,0.209346501867369,0.38791074044689,1.80815852559147,1.41316208919282,1.76618685558191,179951.585648081,179951.811679463,179951.811679463,179955.011518633,3.2,179956.8416565,179956.8416565,179959.241455826,2.4,179960.802349298,179962.677746852,1.87539755407488,66,Shorter,Index,66,S,Index
217,Temporal,1243,2,2,10,800,7.5,3.33333333333333,1,m,m,-800,400,-800,0,S,=,L,0.440094310543403,0.303650054040675,1.40584775910836,1.52435127898538,1.32430537390326,179964.602364761,179965.061969629,179965.061969629,179966.661812199,1.6,179968.092037453,179968.092037453,179970.491861801,2.4,179972.152381667,179973.613870651,1.46148898397223,77,Longer,Ring,77,L,Ring
217,Temporal,1243,2,2,11,400,2.5,5,2,r,r,0,400,0,400,L,S,=,0.311808847310208,0.444390202458389,1.77414731715062,1.65661365554075,1.85793590156817,179975.085810086,179975.411880735,179975.411880735,179977.011777841,1.6,179978.812125378,179978.812125378,179979.611939974,0.8,179981.402437968,179982.053847284,0.651409315963974,78,Shorter,Middle,78,S,Middle
217,Temporal,1243,2,2,12,800,15,5,1,m,m,-800,400,-800,0,=,L,S,0.229457027776324,0.496749884738208,1.58934040500196,1.21053582744117,1.60315301437051,179984.052536759,179984.301948892,179984.301948892,179985.101910095,0.8,179986.722091932,179986.722091932,179988.32191397,1.6,179989.685823368,179990.621794785,0.935971417813562,78,Longer,Middle,78,L,Middle
217,Temporal,1243,2,2,13,800,7.5,3.33333333333333,1,l,l,-1600,-400,-1600,-800,=,L,S,0.386309837004025,0.379256008153386,1.99317636961838,1.0171303101471,1.27383055041353,179992.369255797,179992.772151505,179992.772151505,179994.372103789,1.6,179996.392226149,179996.392226149,179998.792038306,2.4,179999.95255304,180000.701824338,0.749271297885571,78,Longer,Middle,78,L,Middle
217,Temporal,1243,2,2,14,1200,2.5,5,1,l,l,-1600,-800,-1600,-400,=,L,S,0.455175781454386,0.438581885710603,1.27185192723932,1.04036297428394,1.84885939314624,180002.11932108,180002.592560681,180002.592560681,180005.792455028,3.2,180007.09246412,180007.09246412,180009.492291355,2.4,180010.669291149,180011.149845726,0.480554577108705,77,Shorter,Ring,77,S,Ring
217,Temporal,1243,2,2,15,800,1.66666666666667,5,1,l,l,-1600,-1200,-1600,-800,S,=,L,0.461192504808429,0.342767277483517,1.93028740614025,1.45864705551433,1.95085381863673,180013.169331891,180013.642631803,180013.642631803,180016.04251165,2.4,180018.002674804,180018.002674804,180019.602567739,1.6,180021.202682163,180022.501753505,1.29907134189853,66,Shorter,Index,66,S,Index
217,Temporal,1243,2,2,16,400,2.5,5,2,r,r,0,400,0,400,S,=,L,0.306339353022894,0.333217559239285,1.22589374918205,1.12864872112678,1.19443259709686,180024.602755177,180024.922808219,180024.922808219,180026.522637635,1.6,180027.772910202,180027.772910202,180028.572454682,0.8,180029.852768491,180030.773633014,0.920864523330238,66,Shorter,Index,66,S,Index
217,Temporal,1243,2,2,17,1200,2.5,5,1,r,r,0,800,0,1200,L,S,=,0.343115690130737,0.434354146000053,1.84526441822995,1.33166951518582,1.21262634202615,180032.136123093,180032.492701385,180032.492701385,180035.692700635,3.2,180037.562822642,180037.562822642,180039.962719812,2.4,180041.452817702,180042.045815681,0.592997979576467,78,Shorter,Middle,66,L,Index
217,Temporal,1243,2,2,18,400,5,5,2,r,r,0,800,0,400,S,=,L,0.392592222397709,0.470053486677827,1.44782269538425,1.24000430315314,1.6986492075445,180043.402914311,180043.813073028,180043.813073028,180045.412924259,1.6,180046.903016009,180046.903016009,180047.702906955,0.8,180049.086206598,180049.565645425,0.479438827198464,66,Shorter,Index,66,S,Index
217,Temporal,1243,2,2,19,800,7.5,3.33333333333333,1,m,m,-800,400,-800,0,L,S,=,0.4613166768517,0.469952792537714,1.3675675541116,1.61393762192199,1.56117323163947,180051.419582598,180051.893090069,180051.893090069,180053.492906974,1.6,180054.883248821,180054.883248821,180057.28284155,2.4,180059.052984105,180059.749756351,0.696772245602915,66,Longer,Index,66,L,Index
217,Temporal,1243,2,2,20,800,5,5,1,r,r,0,400,0,800,L,S,=,0.36538602773126,0.336120571635821,1.98748677073668,1.24613320113792,1.46653345078285,180061.453058303,180061.833118351,180061.833118351,180062.633029829,0.8,180064.65319646,180064.65319646,180066.253062127,1.6,180067.652976755,180068.653819503,1.00084274727851,66,Longer,Index,66,L,Index
217,Temporal,1243,2,2,21,400,1.25,1.25,2,m,m,-800,-400,-800,-400,L,S,=,0.42543845496766,0.253169730648946,1.72238724901168,1.54645110846694,1.08341295793111,180070.269730776,180070.713517852,180070.713517852,180073.913434976,3.2,180075.673486555,180075.673486555,180078.873369674,3.2,180080.569786808,180081.293864081,0.724077273451258,77,Equals to,Ring,77,=,Ring
217,Temporal,1243,2,2,22,1600,20,20,2,l,l,-1600,0,-1600,0,L,S,=,0.206424708275542,0.206664025079599,1.42980575459159,1.40447509724388,1.25120791575265,180082.536450825,180082.753675225,180082.753675225,180083.553500407,0.8,180085.013725155,180085.013725155,180085.813569906,0.8,180087.369770363,180087.774034658,0.404264294775203,77,Equals to,Ring,77,=,Ring
217,Temporal,1243,2,2,23,1600,10,20,2,r,r,0,1600,0,1600,S,=,L,0.432845929261034,0.21726022946683,1.64017418514576,1.30235188077293,1.01834283480949,180089.169805395,180089.613731699,180089.613731699,180091.213637146,1.6,180092.893897207,180092.893897207,180093.693369507,0.8,180095.136552393,180096.005844053,0.869291660113959,66,Shorter,Index,66,S,Index
217,Temporal,1243,2,2,24,400,10,5,2,m,m,-800,0,-800,-400,L,S,=,0.230656407833288,0.343494448002828,1.79968953179476,1.89784470096465,1.47870036929979,180097.169856403,180097.413705137,180097.413705137,180098.213545717,0.8,180100.053638076,180100.053638076,180100.853548271,0.8,180102.903193778,NaN,NaN,77,Equals to,Ring,999,Missed,Missed
217,Temporal,1243,2,2,25,800,5,5,1,l,l,-1600,-1200,-1600,-800,L,S,=,0.41769185592094,0.418227460124716,1.99392910883988,1.6208227189659,1.96594216712774,180139.870121963,180140.304432222,180140.304432222,180141.104220512,0.8,180143.12451001,180143.12451001,180144.724151757,1.6,180146.486810219,180147.085888683,0.599078463710612,66,Longer,Index,66,L,Index
217,Temporal,1243,2,2,26,1200,10,7.5,1,r,r,0,800,0,1200,L,S,=,0.203167441877056,0.274522505072153,1.6891159494264,1.18477667584789,1.88693141548923,180149.203514644,180149.424632941,180149.424632941,180150.224457482,0.8,180151.944726385,180151.944726385,180153.544270287,1.6,180154.870187406,180155.293969304,0.423781898163725,66,Longer,Index,66,L,Index
217,Temporal,1243,2,2,27,800,1.25,3.33333333333333,1,m,m,-800,-400,-800,0,=,L,S,0.309991181381084,0.449411601429128,1.6025768729877,1.9644546751185,1.9749225808773,180157.33693915,180157.664519814,180157.664519814,180160.86440582,3.2,180162.50491689,180162.50491689,180164.904460215,2.4,180167.020331176,180167.693881276,0.673550100065768,77,Shorter,Ring,77,S,Ring
217,Temporal,1243,2,2,28,1200,10,5,1,l,l,-1600,0,-1600,-400,L,S,=,0.399281783512566,0.313095582412287,1.01359973965576,1.51230780470374,1.39274827682292,180169.820361377,180170.234931396,180170.234931396,180171.834830106,1.6,180172.884861494,180172.884861494,180175.284739736,2.4,180176.953699908,180177.925851072,0.97215116454754,66,Longer,Index,66,L,Index
217,Temporal,1243,2,2,29,800,7.5,3.33333333333333,1,r,r,0,1200,0,800,L,S,=,0.417356777296282,0.401253707572383,1.38597470761167,1.03798139066136,1.95502551411718,180179.470398302,180179.905007869,180179.905007869,180181.504851401,1.6,180182.925023999,180182.925023999,180185.324890052,2.4,180186.503772092,180187.133916937,0.630144845112227,66,Longer,Index,66,L,Index
217,Temporal,1243,2,2,30,1200,5,5,1,m,m,-800,0,-800,400,=,L,S,0.347534869467421,0.364864546389266,1.14981919457365,1.22172301688703,1.77535736204171,180189.237154552,180189.595010327,180189.595010327,180191.195000786,1.6,180192.364847609,180192.364847609,180194.764883045,2.4,180196.137109881,180196.66204904,0.524939159862697,78,Longer,Middle,78,L,Middle
217,Temporal,1243,2,2,31,400,3.33333333333333,1.25,2,r,r,0,800,0,400,S,=,L,0.235916882549017,0.240964994085762,1.19948001735095,1.32596092136023,1.8580865367761,180198.603826336,180198.855253058,180198.855253058,180201.255157286,2.4,180202.485099016,180202.485099016,180205.685165313,3.2,180207.153841959,180207.669840683,0.515998724498786,77,Longer,Ring,77,L,Ring
217,Temporal,1243,2,2,32,1200,6.66666666666667,7.5,1,m,m,-800,800,-800,400,S,=,L,0.401693705310077,0.306092105353077,1.32580910970135,1.10900081622426,1.06430262708305,180209.670607721,180210.085220728,180210.085220728,180212.485177246,2.4,180213.845441324,180213.845441324,180215.44530635,1.6,180216.687239709,180217.493907646,0.806667937053135,66,Shorter,Index,66,S,Index
217,Temporal,1243,2,2,33,1200,5,5,1,r,r,0,800,0,1200,S,=,L,0.488045944757039,0.30282549681928,1.31947137701189,1.95338017605256,1.31008596127892,180218.720616928,180219.225628134,180219.225628134,180220.825504388,1.6,180222.17545211,180222.17545211,180224.575360508,2.4,180226.670694998,180227.189721114,0.51902611591504,77,Longer,Ring,77,L,Ring
217,Temporal,1243,2,2,34,800,5,5,1,r,r,0,400,0,800,L,S,=,0.431759877305652,0.298693865791363,1.4317006321303,1.47900262011611,1.37981128108817,180228.654060377,180229.105712287,180229.105712287,180229.905558642,0.8,180231.365704793,180231.365704793,180232.96555827,1.6,180234.604018496,180235.085897345,0.481878848426277,66,Longer,Index,66,L,Index
217,Temporal,1243,2,2,35,1200,10,7.5,1,r,r,0,800,0,1200,=,L,S,0.325396936898213,0.479298581462996,1.38127309441855,1.82006520884383,1.6234229417369,180236.604106075,180236.945992912,180236.945992912,180237.745509161,0.8,180239.145585108,180239.145585108,180240.745635878,1.6,180242.704126064,180243.221892758,0.517766694567399,78,Longer,Middle,78,L,Middle
217,Temporal,1243,2,2,36,1200,6.66666666666667,7.5,1,r,r,0,1600,0,1200,L,S,=,0.334233105553729,0.243004706048593,1.10878936476764,1.47372682646832,1.74595197175593,180244.987501869,180245.335972849,180245.335972849,180247.7358867,2.4,180248.876035905,180248.876035905,180250.475852169,1.6,180252.087457085,180252.605941064,0.518483978841687,78,Shorter,Middle,77,=,Ring
217,Temporal,1243,2,2,37,1200,5,5,1,m,m,-800,800,-800,400,L,S,=,0.292381360520126,0.284612944319598,1.58898781210693,1.97195591014136,1.75341124419082,180254.504190959,180254.815990724,180254.815990724,180258.015889883,3.2,180259.646356316,180259.646356316,180262.045925306,2.4,180264.154256999,180264.869937501,0.715680501889437,78,Shorter,Middle,77,=,Ring
217,Temporal,1243,2,2,38,1600,7.5,20,2,l,l,-1600,-400,-1600,0,S,=,L,0.220495427657874,0.298161735849334,1.24691918806281,1.24553908114483,1.69639791239775,180266.770958807,180267.006293452,180267.006293452,180268.60613538,1.6,180269.886456843,180269.886456843,180270.685990737,0.8,180272.087581877,180272.501942136,0.414360259543173,66,Shorter,Index,66,S,Index
217,Temporal,1243,2,2,39,1600,3.75,5,2,r,r,0,1200,0,1600,=,L,S,0.303507220586516,0.33549904618422,1.38044541473747,1.19902117127035,1.01970773565311,180274.354344864,180274.676393664,180274.676393664,180277.876388101,3.2,180279.286302409,180279.286302409,180282.48625835,3.2,180283.837726096,180284.357996603,0.520270507491659,66,Equals to,Index,78,L,Middle
217,Temporal,1243,2,2,40,1200,3.33333333333333,7.5,1,m,m,-800,0,-800,400,=,L,S,0.391396762948312,0.227699082946662,1.2953299749837,1.19926077209151,1.4450801932423,180285.521105574,180285.926488461,180285.926488461,180288.326519726,2.4,180289.646734863,180289.646734863,180291.246292239,1.6,180292.58770699,180293.885935584,1.29822859462001,77,Shorter,Ring,66,=,Index
217,Temporal,1243,2,2,41,1200,20,7.5,1,r,r,0,1600,0,1200,=,L,S,0.35204447117922,0.331965555470177,1.84849533709888,1.7889564927462,1.91792106219974,180295.471112407,180295.836495115,180295.836495115,180296.636540688,0.8,180298.516812234,180298.516812234,180300.116709019,1.6,180302.054434673,180302.973934183,0.919499510142487,78,Longer,Middle,78,L,Middle
217,Temporal,1243,2,2,42,1600,15,20,2,m,m,-800,400,-800,800,=,L,S,0.431067227887878,0.424927130907041,1.32262688483326,1.5376728430729,1.4649968691787,180305.037812309,180305.486915077,180305.486915077,180306.286722615,0.8,180307.646842332,180307.646842332,180308.446707293,0.8,180310.121166334,180310.542012572,0.420846237597289,66,Equals to,Index,66,=,Index
217,Temporal,1243,2,2,43,1200,20,7.5,1,l,l,-1600,0,-1600,-400,S,=,L,0.216030986061594,0.417936932083237,1.35676488686177,1.78027997709267,1.9616332077537,180312.171192544,180312.406853123,180312.406853123,180313.206858917,0.8,180314.596854297,180314.596854297,180316.196752045,1.6,180318.121262033,180318.58989069,0.468628657137742,77,Longer,Ring,77,L,Ring
217,Temporal,1243,2,2,44,800,5,5,1,m,m,-800,400,-800,0,L,S,=,0.210583639792231,0.340012956123666,1.48204919635368,1.02559711266364,1.1395384540007,180320.704586765,180320.927242346,180320.927242346,180323.326805882,2.4,180324.836861791,180324.836861791,180326.436834607,1.6,180327.604600111,180329.6138421,2.00924198940629,78,Shorter,Middle,77,=,Ring
217,Temporal,1243,2,2,45,1600,6.66666666666667,5,2,l,l,-1600,0,-1600,0,L,S,=,0.257010160204545,0.343792811863893,1.1276026704902,1.07179519097486,1.58378012987118,180330.904681658,180331.177189895,180331.177189895,180333.577034133,2.4,180334.727364957,180334.727364957,180337.927277269,3.2,180339.138066531,180339.621968981,0.483902449894231,66,Longer,Index,66,L,Index
217,Temporal,1243,2,2,46,1600,10,20,2,l,l,-1600,0,-1600,0,=,L,S,0.227099604557478,0.263980969361322,1.79511610714547,1.62357247330777,1.72620676656052,180341.35471993,180341.597328764,180341.597328764,180343.197265008,1.6,180345.017513828,180345.017513828,180345.817289286,0.8,180347.588056664,180348.077943376,0.48988671193365,77,Shorter,Ring,77,S,Ring
217,Temporal,1243,2,2,47,800,1.66666666666667,5,1,r,r,0,400,0,800,S,=,L,0.480187024662534,0.351260490153552,1.51889168435084,1.46469635743088,1.04905882251942,180349.954800901,180350.447526988,180350.447526988,180352.84735711,2.4,180354.387377224,180354.387377224,180355.987283313,1.6,180357.604841004,180357.981966748,0.377125744678779,66,Shorter,Index,78,=,Middle
217,Temporal,1243,2,2,48,1600,5,5,2,l,l,-1600,-400,-1600,0,S,=,L,0.296977181394983,0.299237945004965,1.85051862164415,1.14517097823239,1.42073633197247,180359.188197945,180359.497472355,180359.497472355,180361.897380432,2.4,180363.767672144,180363.767672144,180366.967690962,3.2,180368.271509304,180368.733997586,0.462488282675622,77,Longer,Ring,77,L,Ring
217,Temporal,1243,2,2,49,1200,10,5,1,l,l,-1600,0,-1600,-400,L,S,=,0.356627663177581,0.367461482962404,1.49862211595128,1.77191544405444,1.9913088556888,180445.738744721,180446.109099637,180446.109099637,180447.708644502,1.6,180449.238958105,180449.238958105,180451.638925852,2.4,180453.55538553,180454.030008796,0.474623265996343,66,Longer,Index,66,L,Index
217,Temporal,1243,2,2,50,800,3.75,3.33333333333333,1,l,l,-1600,-400,-1600,-800,=,L,S,0.409326358443123,0.244720158492254,1.29183302446236,1.24278571860854,1.98062442237042,180456.172140097,180456.598927,180456.598927,180459.798796966,3.2,180461.12919308,180461.12919308,180463.529118801,2.4,180464.90547404,180465.493842844,0.588368804426864,77,Shorter,Ring,78,L,Middle
217,Temporal,1243,2,2,51,1600,7.5,20,2,l,l,-1600,-400,-1600,0,S,=,L,0.470436813370536,0.236175242929938,1.02239438721631,1.31291130866165,1.30497427023767,180467.63882553,180468.129012468,180468.129012468,180469.72906773,1.6,180470.778992931,180470.778992931,180471.578910184,0.8,180473.03889016,180473.445959272,0.407069112145109,66,Shorter,Index,66,S,Index
217,Temporal,1243,2,2,52,400,1.25,1.25,2,l,l,-1600,-1200,-1600,-1200,=,L,S,0.316432071237617,0.430675967963307,1.89703089011385,1.60801293527674,1.81620406520119,180474.905580867,180475.239182667,180475.239182667,180478.439047821,3.2,180480.369372845,180480.369372845,180483.569337447,3.2,180485.322241278,180485.901870469,0.579629191197455,66,Equals to,Index,78,L,Middle
217,Temporal,1243,2,2,53,400,2.5,1.25,2,l,l,-1600,-800,-1600,-1200,L,S,=,0.385201313212287,0.401928113951488,1.93065254615916,1.52712162591399,1.18354243293963,180487.87237656,180488.269455483,180488.269455483,180491.469424898,3.2,180493.439596117,180493.439596117,180496.639445551,3.2,180498.322336556,180498.734034479,0.411697922419989,77,Equals to,Ring,66,L,Index
217,Temporal,1243,2,2,54,1200,10,7.5,1,m,m,-800,0,-800,400,=,L,S,0.447154017207964,0.272668539752829,1.38947924181539,1.31109919150926,1.21131578751004,180500.072363022,180500.539779102,180500.539779102,180501.339630269,0.8,180502.759654015,180502.759654015,180504.35953091,1.6,180505.822367674,180506.830031638,1.00766396359541,78,Longer,Middle,78,L,Middle
217,Temporal,1243,2,2,55,1200,3.33333333333333,7.5,1,m,m,-800,0,-800,400,=,L,S,0.212631873253886,0.497928175802121,1.35851892511636,1.83052824265173,1.64042740768602,180508.205753202,180508.42991944,180508.42991944,180510.829810515,2.4,180512.20997363,180512.20997363,180513.809857262,1.6,180515.789162552,180517.142056008,1.35289345573983,77,Shorter,Ring,66,=,Index
217,Temporal,1243,2,2,56,800,5,5,1,m,m,-800,400,-800,0,=,L,S,0.206212612778219,0.48645300783052,1.88394854367915,1.42858379177326,1.03228734457115,180518.955808219,180519.180039901,180519.180039901,180521.579926164,2.4,180523.490187579,180523.490187579,180525.090003522,1.6,180526.672498529,180527.573974091,0.901475561608095,77,Shorter,Ring,66,=,Index
217,Temporal,1243,2,2,57,800,3.75,3.33333333333333,1,m,m,-800,400,-800,0,=,L,S,0.374444525010455,0.495809189159142,1.36894027055931,1.86313188151361,1.91916560680251,180528.755912223,180529.150239947,180529.150239947,180532.350126274,3.2,180533.760354326,180533.760354326,180536.159870704,2.4,180538.172636397,180538.598150383,0.425513986323494,77,Shorter,Ring,77,S,Ring
217,Temporal,1243,2,2,58,1600,5,5,2,l,l,-1600,-400,-1600,0,L,S,=,0.277220984201269,0.371959020716425,1.13886358481903,1.0522111751919,1.85196434341851,180540.689322036,180540.980283134,180540.980283134,180543.380248635,2.4,180544.540349809,180544.540349809,180547.740229078,3.2,180548.939310327,180549.406044426,0.46673409928917,66,Longer,Index,66,L,Index
217,Temporal,1243,2,2,59,1200,6.66666666666667,7.5,1,l,l,-1600,0,-1600,-400,S,=,L,0.321471994357227,0.448839708584327,1.19138222362377,1.19617307843429,1.36091911659782,180551.406062391,180551.740497956,180551.740497956,180554.140368178,2.4,180555.360195657,180555.360195657,180556.960216593,1.6,180558.306086293,180558.846038382,0.539952088700375,66,Shorter,Index,66,S,Index
217,Temporal,1243,2,2,60,1600,15,20,2,l,l,-1600,-400,-1600,0,L,S,=,0.244064967942193,0.407167946471282,1.89394594424748,1.54529560265766,1.60371987035222,180560.356107079,180560.610557041,180560.610557041,180561.410511506,0.8,180563.330697578,180563.330697578,180564.130550991,0.8,180565.822768356,180566.262299394,0.439531038573477,77,Equals to,Ring,77,=,Ring
217,Temporal,1243,2,2,61,800,2.5,3.33333333333333,1,m,m,-800,-400,-800,0,=,L,S,0.364716129887601,0.4183702985288,1.11193962807992,1.78789336472328,1.61620333953503,180568.02282347,180568.40080087,180568.40080087,180570.000636382,1.6,180571.150783707,180571.150783707,180573.550667082,2.4,180575.489462291,180575.942077566,0.452615275455173,78,Longer,Middle,78,L,Middle
217,Temporal,1243,2,2,62,800,1.66666666666667,5,1,l,l,-1600,-1200,-1600,-800,L,S,=,0.431145787092421,0.370692556167846,1.80933575918814,1.64920668057554,1.57024188145232,180577.70618051,180578.150882835,180578.150882835,180580.550749849,2.4,180582.400993672,180582.400993672,180584.000573825,1.6,180585.806220418,180586.158120818,0.351900399924489,78,Shorter,Middle,78,S,Middle
217,Temporal,1243,2,2,63,1200,20,7.5,1,r,r,0,1600,0,1200,S,=,L,0.454346741021954,0.323459457747756,1.70581242623626,1.01476754197187,1.8271455386279,180587.872954966,180588.340841021,180588.340841021,180589.140710474,0.8,180590.881106184,180590.881106184,180592.480985004,1.6,180593.639633539,180594.062208351,0.422574811644154,77,Longer,Ring,77,L,Ring
217,Temporal,1243,2,2,64,1600,6.66666666666667,5,2,m,m,-800,800,-800,800,S,=,L,0.244669500658513,0.455080757192672,1.86283005054063,1.96759655045591,1.14908423630751,180596.056325481,180596.321088912,180596.321088912,180598.721011425,2.4,180600.621095071,180600.621095071,180603.820976907,3.2,180605.939650056,180606.398090136,0.458440080226865,77,Longer,Ring,77,L,Ring
217,Temporal,1243,2,2,65,800,15,5,1,r,r,0,1200,0,800,S,=,L,0.440049688810299,0.321331818448063,1.98210366037303,1.04197951798629,1.34863718215869,180607.706359839,180608.161141767,180608.161141767,180608.961133125,0.8,180610.971457866,180610.971457866,180612.571292416,1.6,180613.756433,180615.174136866,1.4177038660564,77,Longer,Ring,77,L,Ring
217,Temporal,1243,2,2,66,1200,5,5,1,r,r,0,1600,0,1200,S,=,L,0.495783066296022,0.366278426376176,1.35784281685065,1.09782953822564,1.63822059446365,180616.673116394,180617.181287822,180617.181287822,180620.38112667,3.2,180621.761411048,180621.761411048,180624.161322013,2.4,180625.406021328,180625.766038344,0.36001701533678,66,Shorter,Index,78,=,Middle
217,Temporal,1243,2,2,67,800,5,5,1,r,r,0,1200,0,800,=,L,S,0.224668675413536,0.400406719899454,1.90766343260639,1.89856188948484,1.28966196060292,180627.556515716,180627.801501694,180627.801501694,180630.201340157,2.4,180632.141683191,180632.141683191,180633.741567786,1.6,180635.789903476,180636.286105802,0.496202325477498,77,Shorter,Ring,77,S,Ring
217,Temporal,1243,2,2,68,800,2.5,3.33333333333333,1,r,r,0,400,0,800,=,L,S,0.374927559398688,0.485696233267209,1.53611601824889,1.37384393450136,1.88926376110067,180637.72325713,180638.111838325,180638.111838325,180639.711656834,1.6,180641.271471083,180641.271471083,180643.671523201,2.4,180645.189890818,180646.102113252,0.912222433951683,78,Longer,Middle,78,L,Middle
217,Temporal,1243,2,2,69,1600,3.75,5,2,m,m,-800,400,-800,800,S,=,L,0.39289951421141,0.366409497680837,1.83430307885882,1.07822459752935,1.40745251239299,180648.156610481,180648.561588195,180648.561588195,180651.761601239,3.2,180653.621948405,180653.621948405,180656.821770251,3.2,180658.056664889,180660.237960455,2.18129556594067,78,Equals to,Middle,78,=,Middle
217,Temporal,1243,2,2,70,1200,10,7.5,1,l,l,-1600,-800,-1600,-400,S,=,L,0.457997316235687,0.201903474528855,1.81625453613196,1.56132769593107,1.38068267614559,180661.790036591,180662.262043029,180662.262043029,180663.061890025,0.8,180664.902068038,180664.902068038,180666.501911891,1.6,180668.223379997,180669.134137007,0.910757009696681,77,Longer,Ring,77,L,Ring
217,Temporal,1243,2,2,71,1200,6.66666666666667,7.5,1,l,l,-1600,0,-1600,-400,L,S,=,0.448863583035375,0.390540528910305,1.59563341120968,1.07523271600937,1.72700104061731,180670.673423081,180671.142028695,180671.142028695,180673.541921695,2.4,180675.172348349,180675.172348349,180676.772235189,1.6,180677.990243142,180679.822151774,1.83190863238997,78,Shorter,Middle,77,=,Ring
217,Temporal,1243,2,2,72,400,3.33333333333333,1.25,2,m,m,-800,0,-800,-400,=,L,S,0.426445045230126,0.410127882896963,1.09852355072309,1.75793392271726,1.04441892262768,180681.706816019,180682.152363337,180682.152363337,180684.552266281,2.4,180685.682172273,180685.682172273,180688.88224627,3.2,180690.773577003,180691.294120723,0.52054372036946,78,Longer,Middle,78,L,Middle
217,Temporal,1243,2,2,73,800,2.5,3.33333333333333,1,l,l,-1600,-1200,-1600,-800,=,L,S,0.471950325345515,0.202126770796593,1.01186969908977,1.21650818233976,1.31440257867965,180700.37360844,180700.862540721,180700.862540721,180702.462500063,1.6,180703.502374853,180703.502374853,180705.902432425,2.4,180707.273607029,180707.718008165,0.44440113613382,78,Longer,Middle,78,L,Middle
217,Temporal,1243,2,2,74,1200,5,5,1,m,m,-800,800,-800,400,=,L,S,0.290504414068496,0.480948397237319,1.40062287322468,1.44991949422268,1.7500165565906,180709.190340904,180709.492681495,180709.492681495,180712.692722449,3.2,180714.122588084,180714.122588084,180716.522585665,2.4,180718.12369618,180718.862209698,0.738513518270338,77,Shorter,Ring,66,=,Index
217,Temporal,1243,2,2,75,1200,2.5,5,1,m,m,-800,0,-800,400,S,=,L,0.2011020209871,0.342875955635147,1.07519367390605,1.99669035950209,1.06943543496922,180720.773780904,180720.992941024,180720.992941024,180724.192810028,3.2,180725.292892647,180725.292892647,180727.692797517,2.4,180729.840488475,180730.358130699,0.517642223305302,66,Shorter,Index,66,S,Index
217,Temporal,1243,2,2,76,800,1.25,3.33333333333333,1,l,l,-1600,-1200,-1600,-800,=,L,S,0.440388293000302,0.411686001575903,1.86779243938029,1.55384344106925,1.22625680003286,180731.573849619,180732.032925164,180732.032925164,180735.232812133,3.2,180737.123178681,180737.123178681,180739.523117555,2.4,180741.22381693,180742.366082743,1.142265812814,77,Shorter,Ring,77,S,Ring
217,Temporal,1243,2,2,77,800,2.5,3.33333333333333,1,m,m,-800,-400,-800,0,=,L,S,0.37501799148132,0.26303832649578,1.75867647899815,1.08407634650708,1.43545785377741,180743.773849608,180744.163285046,180744.163285046,180745.763164187,1.6,180747.543434643,180747.543434643,180749.942995291,2.4,180751.173877978,180752.01411337,0.840235391806345,78,Longer,Middle,77,S,Ring
217,Temporal,1243,2,2,78,400,5,5,2,l,l,-1600,-1200,-1600,-1200,L,S,=,0.457962869654569,0.498495197487275,1.11213053820034,1.1867426320339,1.47581899770854,180753.607269826,180754.08344188,180754.08344188,180754.883368756,0.8,180756.013443811,180756.013443811,180756.813342136,0.8,180758.140595396,180758.582146526,0.441551129770232,77,Equals to,Ring,77,=,Ring
217,Temporal,1243,2,2,79,800,3.75,3.33333333333333,1,r,r,0,1200,0,800,S,=,L,0.401478724203158,0.450841834121019,1.38837497336893,1.96210076316704,1.63614722744365,180760.223993371,180760.643455623,180760.643455623,180763.843332005,3.2,180765.26349947,180765.26349947,180767.663368731,2.4,180769.774054231,180770.254106107,0.48005187624949,66,Shorter,Index,78,=,Middle
217,Temporal,1243,2,2,80,1200,20,7.5,1,m,m,-800,800,-800,400,S,=,L,0.444984429070749,0.2175030139876,1.35063432603196,1.11834437762461,1.25179256965852,180772.040751178,180772.503684689,180772.503684689,180773.303491906,0.8,180774.693705111,180774.693705111,180776.293501806,1.6,180777.557376749,180778.790130586,1.23275383631699,77,Longer,Ring,77,L,Ring
217,Temporal,1243,2,2,81,800,15,5,1,m,m,-800,400,-800,0,S,=,L,0.43727982738738,0.280680284239201,1.15130823445185,1.48499856231004,1.74921572551972,180780.190757946,180780.643888706,180780.643888706,180781.443681487,0.8,180782.623932887,180782.623932887,180784.223679216,1.6,180785.857499235,180786.822186742,0.964687506726477,77,Longer,Ring,78,=,Middle
217,Temporal,1243,2,2,82,1200,5,5,1,r,r,0,800,0,1200,S,=,L,0.287705661082349,0.404273506122302,1.56327065625057,1.71981765616449,1.45493877361651,180788.724186494,180789.023955536,180789.023955536,180790.623834677,1.6,180792.224089246,180792.224089246,180794.623646366,2.4,180796.490868687,180796.902165286,0.4112965989043,77,Longer,Ring,77,L,Ring
217,Temporal,1243,2,2,83,800,15,5,1,m,m,-800,400,-800,0,L,S,=,0.313755287812783,0.38320480954005,1.39262268936408,1.41182339648146,1.41947064395965,180798.507583121,180798.833844005,180798.833844005,180799.633814511,0.8,180801.043934773,180801.043934773,180802.643751999,1.6,180804.207597932,180804.790192501,0.58259456808446,66,Longer,Index,66,L,Index
217,Temporal,1243,2,2,84,400,1.66666666666667,1.25,2,r,r,0,400,0,400,L,S,=,0.246471017855158,0.339406277811459,1.05037584849295,1.12448793537101,1.07998228249835,180806.357642438,180806.624055433,180806.624055433,180809.023958378,2.4,180810.104152547,180810.104152547,180813.304022833,3.2,180814.574299384,180815.030195182,0.455895798339043,66,Longer,Index,66,L,Index
217,Temporal,1243,2,2,85,1200,10,5,1,m,m,-800,800,-800,400,=,L,S,0.496203834741074,0.255398966034138,1.10422447617477,1.58647955096993,1.51102174399551,180816.274316964,180816.784092082,180816.784092082,180818.384005549,1.6,180819.524190684,180819.524190684,180821.924188585,2.4,180823.65772941,180824.51819237,0.860462959710276,78,Longer,Middle,78,L,Middle
217,Temporal,1243,2,2,86,800,3.75,3.33333333333333,1,r,r,0,1200,0,800,S,=,L,0.463799073385979,0.268073943157105,1.23198738093705,1.11300418122912,1.66136394553611,180826.191039932,180826.674413994,180826.674413994,180829.874276902,3.2,180831.134242506,180831.134242506,180833.534307135,2.4,180834.807729792,180835.286187606,0.478457814198919,66,Shorter,Index,66,S,Index
217,Temporal,1243,2,2,87,800,1.25,3.33333333333333,1,l,l,-1600,-1200,-1600,-800,=,L,S,0.301408566049146,0.282281942746624,1.06425938850333,1.89546637645789,1.61241920358826,180837.107786318,180837.424791418,180837.424791418,180840.624366567,3.2,180841.724558259,180841.724558259,180844.12444388,2.4,180846.174479162,180846.758313748,0.583834586723242,77,Shorter,Ring,66,=,Index
217,Temporal,1243,2,2,88,1200,10,5,1,m,m,-800,800,-800,400,L,S,=,0.426740936782216,0.400014721933073,1.62180112064432,1.35581627302763,1.5845458538871,180848.524508002,180848.96467675,180848.96467675,180850.564585084,1.6,180852.214743317,180852.214743317,180854.614726462,2.4,180856.107881275,180856.662187948,0.554306672740495,66,Longer,Index,66,L,Index
217,Temporal,1243,2,2,89,800,1.25,3.33333333333333,1,l,l,-1600,-1200,-1600,-800,=,L,S,0.24456584666847,0.429085447857748,1.87989511215076,1.87835376857443,1.72064377186482,180858.391282073,180858.655041072,180858.655041072,180861.854939269,3.2,180863.765041566,180863.765041566,180866.164956701,2.4,180868.191341873,180868.742220387,0.55087851441931,77,Shorter,Ring,77,S,Ring
217,Temporal,1243,2,2,90,400,5,5,2,r,r,0,800,0,400,=,L,S,0.2887439780231,0.318498894331279,1.1760807719779,1.68152953840761,1.26173355585297,180870.608034618,180870.915031654,180870.915031654,180872.515072158,1.6,180873.715013753,180873.715013753,180874.514965973,0.8,180876.34136237,180877.14213268,0.80077031016117,77,Shorter,Ring,77,S,Ring
217,Temporal,1243,2,2,91,800,5,5,1,l,l,-1600,-1200,-1600,-800,L,S,=,0.413379223069544,0.480729631769906,1.32572154455226,1.40664820455556,1.14711030426849,180878.541413634,180878.975153186,180878.975153186,180879.774984143,0.8,180881.135266186,180881.135266186,180882.735117738,1.6,180884.291435804,180884.798265487,0.506829682417447,66,Longer,Index,66,L,Index
217,Temporal,1243,2,2,92,1600,5,5,2,r,r,0,1600,0,1600,S,=,L,0.400321021091987,0.440300356494685,1.59836367772808,1.88704202311718,1.57877940492645,180886.10810327,180886.52548512,180886.52548512,180889.725363106,3.2,180891.355529911,180891.355529911,180894.555125912,3.2,180896.591444335,180897.062238506,0.470794171385933,78,Equals to,Middle,77,L,Ring
217,Temporal,1243,2,2,93,1600,20,20,2,m,m,-800,800,-800,800,L,S,=,0.376140234324306,0.471159553643112,1.25502671460314,1.98324254140854,1.84406372666725,180898.808213562,180899.195396701,180899.195396701,180899.995373943,0.8,180901.27550902,180901.27550902,180902.075316879,0.8,180904.208223349,180904.670258047,0.462034697819036,77,Equals to,Ring,77,=,Ring
217,Temporal,1243,2,2,94,400,1.66666666666667,1.25,2,m,m,-800,-400,-800,-400,=,L,S,0.20874214179857,0.460424805626966,1.56703939917784,1.92344352693263,1.23477479801294,180906.674869899,180906.895569228,180906.895569228,180909.295417957,2.4,180910.885758777,180910.885758777,180914.085632272,3.2,180916.158223154,180916.646186657,0.487963502993807,78,Longer,Middle,78,L,Middle
217,Temporal,1243,2,2,95,1200,5,5,1,r,r,0,800,0,1200,L,S,=,0.35362436405713,0.261137316373141,1.8430607480414,1.89162441851639,1.12951084858345,180918.041606115,180918.405565423,180918.405565423,180920.005537276,1.6,180921.886009965,180921.886009965,180924.285758925,2.4,180926.324974512,180927.118248959,0.793274446885334,66,Longer,Index,66,L,Index
217,Temporal,1243,2,2,96,1200,3.33333333333333,7.5,1,l,l,-1600,-800,-1600,-400,S,=,L,0.205835481201562,0.455293013592049,1.70402299317682,1.51400014037512,1.58844862592084,180928.408095635,180928.625836206,180928.625836206,180931.025692634,2.4,180932.765948795,180932.765948795,180934.365823765,1.6,180936.025024172,180936.886247083,0.861222910665674,66,Shorter,Index,78,=,Middle
