Subject,Task,SequenceOrder,ListNo,RunNo,TrialNo,Aud_Probe_Dist,Aud_Standard_Vel,Aud_Probe_Vel,Main_Control,Aud_Std_StartCode,Aud_Probe_StartCode,Aud_Std_StartPt,Aud_Std_EndPt,Aud_Probe_StartPt,Aud_Probe_EndPt,RespIndex,RespMiddle,RespRing,ISI_Cross_Std,ISI_Cross_Probe,ISI_Std_Probe,ISI_Probe_Response,ITI,TrialOnset,StdOnset,StdOnsetByStop,StdOffset,StdDur,ProbeOnset,ProbeOnsetByStop,ProbeOffset,ProbeDur,RespWinStart,RespTime,RT,CorrectKC,CorrectResponse,CorrectFinger,SubjRespKC,SubjResponse,SubjRespFinger
201,Temporal,1243,2,2,1,400,2.5,1.25,2,l,l,-1600,-800,-1600,-1200,S,=,L,0.424566936951556,0.483850678071524,1.6460043717631,1.71435649810848,1.30176830199068,673773.448070682,673773.883846918,673773.883846918,673777.094752927,3.2,673778.775193897,673778.775193897,673781.975076834,3.2,673783.848103532,673784.353537113,0.505433581303805,78,Equals to,Middle,77,L,Ring
201,Temporal,1243,2,2,2,1200,5,5,1,r,r,0,800,0,1200,=,L,S,0.377094938123889,0.316119155579857,1.43897019816799,1.0179617133852,1.09061914487584,673785.798138002,673786.195330758,673786.195330758,673787.795162494,1.6,673789.265236048,673789.265236048,673791.665112311,2.4,673792.831492412,673793.265638368,0.43414595653303,78,Longer,Middle,78,L,Middle
201,Temporal,1243,2,2,3,1600,15,20,2,l,l,-1600,-400,-1600,0,S,=,L,0.378416842893274,0.438480669332712,1.09350603967892,1.61896880403368,1.65413062790993,673794.49820367,673794.895295053,673794.895295053,673795.695080658,0.8,673796.825519688,673796.825519688,673797.625074315,0.8,673799.398178936,673799.889874178,0.491695242119022,78,Equals to,Middle,78,=,Middle
201,Temporal,1243,2,2,4,1600,5,5,2,r,r,0,1600,0,1600,=,L,S,0.227189517508926,0.492521060906849,1.86703160887659,1.24452495788171,1.11301558967189,673801.698222982,673801.945434778,673801.945434778,673805.145320922,3.2,673807.045389898,673807.045389898,673810.245316463,3.2,673811.648263548,673812.40151303,0.753249482135288,66,Equals to,Index,78,L,Middle
201,Temporal,1243,2,2,5,400,5,5,2,r,r,0,800,0,400,=,L,S,0.376958985943271,0.349856739240954,1.87404035219152,1.51608716855595,1.77236469480611,673813.664987269,673814.055437412,673814.055437412,673815.655484727,1.6,673817.555550494,673817.555550494,673818.355375558,0.8,673820.014946479,673820.521696952,0.506750472937711,77,Shorter,Ring,77,S,Ring
201,Temporal,1243,2,2,6,400,2.5,1.25,2,r,r,0,800,0,400,=,L,S,0.291211825222526,0.459791386692211,1.27370177780883,1.99089793918203,1.93387076646227,673822.448367103,673822.755668614,673822.755668614,673825.955486427,3.2,673827.255688022,673827.255688022,673830.4555238,3.2,673832.581744979,673833.153686222,0.571941242320463,66,Equals to,Index,78,L,Middle
201,Temporal,1243,2,2,7,1200,10,5,1,m,m,-800,800,-800,400,S,=,L,0.254538670905099,0.237500749713319,1.99323472615461,1.55184675542809,1.17999995833261,673835.231743407,673835.505891651,673835.505891651,673837.105673663,1.6,673839.125937147,673839.125937147,673841.525774594,2.4,673843.231750786,673844.073860456,0.842109669931233,77,Longer,Ring,77,L,Ring
201,Temporal,1243,2,2,8,800,2.5,3.33333333333333,1,m,m,-800,-400,-800,0,L,S,=,0.49280890212949,0.331131480151644,1.5587880086038,1.61896479965881,1.4114081410085,673845.41511984,673845.925886717,673845.925886717,673847.525722945,1.6,673849.126012536,673849.126012536,673851.52590901,2.4,673853.298474042,673854.169635527,0.871161485556513,66,Longer,Index,77,=,Ring
201,Temporal,1243,2,2,9,800,5,5,1,r,r,0,400,0,800,L,S,=,0.438281521078279,0.247161462078737,1.71376782096646,1.89091261984889,1.92647022947022,673855.731872209,673856.186132406,673856.186132406,673856.985940788,0.8,673858.726347324,673858.726347324,673860.32618676,1.6,673862.365215904,673862.921672058,0.556456153281033,66,Longer,Index,77,=,Ring
201,Temporal,1243,2,2,10,1200,20,7.5,1,r,r,0,1600,0,1200,=,L,S,0.483429445482959,0.360877171515934,1.16083782137448,1.39758144466183,1.48601741748268,673864.981905813,673865.476471234,673865.476471234,673866.275950153,0.8,673867.476446212,673867.476446212,673869.076291422,1.6,673870.631908428,673871.41783607,0.785927641787566,78,Longer,Middle,78,L,Middle
201,Temporal,1243,2,2,11,1600,5,5,2,l,l,-1600,-400,-1600,0,=,L,S,0.230607091953354,0.223958172744803,1.38298886220874,1.18010998468493,1.92437888701958,673873.048653402,673873.296408684,673873.296408684,673875.696221429,2.4,673877.116494986,673877.116494986,673880.316312158,3.2,673881.648617392,673882.177793839,0.52917644707486,78,Longer,Middle,78,L,Middle
201,Temporal,1243,2,2,12,1600,20,20,2,l,l,-1600,0,-1600,0,S,=,L,0.246748335893173,0.456056180747115,1.5637676229155,1.90391675906984,1.92780106428015,673884.248678537,673884.506625325,673884.506625325,673885.306470278,0.8,673886.89647817,673886.89647817,673887.69626185,0.8,673889.748705966,673890.27364462,0.5249386546202,78,Equals to,Middle,78,=,Middle
201,Temporal,1243,2,2,13,1600,10,20,2,l,l,-1600,0,-1600,0,L,S,=,0.443400444182848,0.354461353346342,1.37593044459251,1.37614965776158,1.26609381626212,673892.348745296,673892.806718774,673892.806718774,673894.406555002,1.6,673895.806741231,673895.806741231,673896.60647647,0.8,673898.115258651,673898.641845265,0.526586613734253,78,Shorter,Middle,77,=,Ring
201,Temporal,1243,2,2,14,1600,7.5,20,2,l,l,-1600,-400,-1600,0,=,L,S,0.302644452255344,0.354474734678397,1.53751029863973,1.22106209659998,1.57039181448651,673900.065423046,673900.386838556,673900.386838556,673901.986633079,1.6,673903.546904243,673903.546904243,673904.346780635,0.8,673905.715442663,673906.225797024,0.510354360914789,77,Shorter,Ring,77,S,Ring
201,Temporal,1243,2,2,15,1200,10,5,1,l,l,-1600,0,-1600,-400,=,L,S,0.324700082185799,0.333181189148526,1.48594581856684,1.66642405613446,1.45932807665235,673907.948810932,673908.286899476,673908.286899476,673909.886731533,1.6,673911.396884465,673911.396884465,673913.796707476,2.4,673915.615501932,673916.081642467,0.466140535078011,78,Longer,Middle,78,L,Middle
201,Temporal,1243,2,2,16,800,15,5,1,m,m,-800,400,-800,0,L,S,=,0.330242813097443,0.349216964484298,1.56425481863538,1.3822608946949,1.74569919074921,673917.682177757,673918.027031691,673918.027031691,673918.826887552,0.8,673920.427240341,673920.427240341,673922.027025561,1.6,673923.565523297,673924.385715464,0.820192166720517,66,Longer,Index,77,=,Ring
201,Temporal,1243,2,2,17,1200,5,5,1,m,m,-800,0,-800,400,L,S,=,0.494382259159492,0.370969608425391,1.759772911233,1.72042066243419,1.48026653202797,673926.282221258,673926.786829381,673926.786829381,673928.386851352,1.6,673930.177114025,673930.177114025,673932.576907201,2.4,673934.448950241,673934.961586866,0.512636625091545,66,Longer,Index,66,L,Index
201,Temporal,1243,2,2,18,800,1.25,3.33333333333333,1,l,l,-1600,-1200,-1600,-800,=,L,S,0.406320678892186,0.491733271237311,1.72270969291228,1.61021508530771,1.7899243207628,673936.598912674,673937.017442924,673937.017442924,673940.216960146,3.2,673941.967418046,673941.967418046,673944.367202881,2.4,673946.132298042,673946.585435468,0.453137426055036,77,Shorter,Ring,66,=,Index
201,Temporal,1243,2,2,19,800,5,5,1,m,m,-800,400,-800,0,L,S,=,0.274329848807044,0.466569599995867,1.36140791135212,1.7670539244448,1.5888037232116,673948.51570625,673948.807663857,673948.807663857,673951.207194296,2.4,673952.587571331,673952.587571331,673954.187482305,1.6,673956.099017095,673956.56959331,0.470576214720495,78,Shorter,Middle,78,S,Middle
201,Temporal,1243,2,2,20,1200,5,5,1,r,r,0,1600,0,1200,L,S,=,0.463858717298478,0.393615395135146,1.9749321611928,1.33548060979379,1.52997085076696,673958.299064317,673958.777706418,673958.777706418,673961.977522306,3.2,673963.987496071,673963.987496071,673966.387381959,2.4,673967.865746671,673968.513524204,0.647777532925829,78,Shorter,Middle,77,=,Ring
201,Temporal,1243,2,2,21,1200,10,7.5,1,m,m,-800,0,-800,400,=,L,S,0.336981558447215,0.231241273806467,1.8610058804368,1.89040547358159,1.3886294031777,673970.182271912,673970.537607084,673970.537607084,673971.337469361,0.8,673973.227790131,673973.227790131,673974.82759909,1.6,673976.865838068,673977.265778238,0.39994017011486,78,Longer,Middle,78,L,Middle
201,Temporal,1243,2,2,22,400,2.5,5,2,r,r,0,400,0,400,S,=,L,0.271325956116049,0.43574362705948,1.65074227859971,1.25313409260817,1.72798936961535,673978.799165209,673979.087733176,673979.087733176,673980.687534756,1.6,673982.368094424,673982.368094424,673983.167849553,0.8,673984.565842495,673984.993671542,0.427829047315754,66,Shorter,Index,66,S,Index
201,Temporal,1243,2,2,23,800,1.66666666666667,5,1,l,l,-1600,-1200,-1600,-800,=,L,S,0.447322488710097,0.477709507474137,1.52267858466713,1.54523877711003,1.22006828869547,673986.865885578,673987.328069902,673987.328069902,673989.727902216,2.4,673991.28812558,673991.28812558,673992.887928445,1.6,673994.582594174,673995.025494765,0.442900590482168,77,Shorter,Ring,66,=,Index
201,Temporal,1243,2,2,24,800,7.5,3.33333333333333,1,l,l,-1600,-400,-1600,-800,L,S,=,0.258767935441809,0.313340679976407,1.05616152056614,1.39743972093776,1.03854430350214,673996.399245602,673996.677987087,673996.677987087,673998.277938162,1.6,673999.368232048,673999.368232048,674001.768032923,2.4,674003.315952931,674004.00968982,0.693736889166757,66,Longer,Index,66,L,Index
201,Temporal,1243,2,2,25,1200,3.33333333333333,7.5,1,m,m,-800,0,-800,400,=,L,S,0.490281017613553,0.216314658190362,1.96280031475806,1.09262129071813,1.93456729720029,674004.949297267,674005.458193549,674005.458193549,674007.858050243,2.4,674009.848381311,674009.848381311,674011.447971804,1.6,674012.682670509,674013.225529475,0.542858966859058,77,Shorter,Ring,66,=,Index
201,Temporal,1243,2,2,26,1200,20,7.5,1,l,l,-1600,0,-1600,-400,=,L,S,0.306940645383584,0.358093365491189,1.34487163639002,1.40870985382528,1.73062847731305,674015.316047246,674015.638158896,674015.638158896,674016.43816842,0.8,674017.808310593,674017.808310593,674019.408127573,1.6,674020.949360466,674021.553594601,0.604234135244042,78,Longer,Middle,66,=,Index
201,Temporal,1243,2,2,27,400,5,5,2,l,l,-1600,-1200,-1600,-1200,=,L,S,0.433018096729171,0.344928043070975,1.16324938256103,1.90570996946749,1.87078963051606,674023.416077755,674023.868287707,674023.868287707,674024.668261623,0.8,674025.858500043,674025.858500043,674026.65834243,0.8,674028.699440153,674029.201565256,0.502125103259459,66,Equals to,Index,66,=,Index
201,Temporal,1243,2,2,28,1200,6.66666666666667,7.5,1,l,l,-1600,0,-1600,-400,L,S,=,0.281978262834006,0.391377085385792,1.08166512650619,1.83602364582666,1.60613770798754,674031.216105921,674031.50861558,674031.50861558,674033.908472595,2.4,674035.008696903,674035.008696903,674036.608571627,1.6,674038.582797514,674039.033586991,0.450789477326907,78,Shorter,Middle,78,S,Middle
201,Temporal,1243,2,2,29,400,1.25,1.25,2,l,l,-1600,-1200,-1600,-1200,L,S,=,0.468542439934303,0.23543385240963,1.49765868649613,1.54028809512746,1.63639410095324,674040.782855643,674041.268638472,674041.268638472,674044.468527503,3.2,674045.998910842,674045.998910842,674049.198768114,3.2,674050.882855034,674051.721518009,0.838662974885665,77,Equals to,Ring,77,=,Ring
201,Temporal,1243,2,2,30,800,3.75,3.33333333333333,1,r,r,0,1200,0,800,L,S,=,0.373174527809426,0.244790571013957,1.38235992878619,1.60003317146537,1.11710250173619,674053.499566115,674053.888873883,674053.888873883,674057.088830604,3.2,674058.498858712,674058.498858712,674060.898731447,2.4,674062.649573061,674063.201325938,0.551752877421677,78,Shorter,Middle,77,=,Ring
201,Temporal,1243,2,2,31,800,1.25,3.33333333333333,1,l,l,-1600,-1200,-1600,-800,L,S,=,0.346030016445484,0.479070888179346,1.16976399557699,1.15623880146027,1.51508177158219,674064.466284528,674064.82888137,674064.82888137,674068.028938502,3.2,674069.239392251,674069.239392251,674071.638815542,2.4,674072.932846549,674073.57757903,0.644732481683604,78,Shorter,Middle,77,=,Ring
201,Temporal,1243,2,2,32,1200,20,7.5,1,r,r,0,1600,0,1200,=,L,S,0.418058780418023,0.412388875402239,1.17381792872097,1.30597556233776,1.89584344995713,674075.249701574,674075.679180149,674075.679180149,674076.479003609,0.8,674077.689409237,674077.689409237,674079.288864673,1.6,674080.733014585,674081.241655222,0.508640637388453,78,Longer,Middle,78,L,Middle
201,Temporal,1243,2,2,33,1200,5,5,1,r,r,0,1600,0,1200,=,L,S,0.333458729588807,0.493166737784703,1.30933146163555,1.64997044085753,1.25143311028108,674083.299700147,674083.649299382,674083.649299382,674086.849017747,3.2,674088.189217879,674088.189217879,674090.589182042,2.4,674092.383122743,674092.825714771,0.442592027131468,77,Shorter,Ring,66,=,Index
201,Temporal,1243,2,2,34,1200,3.33333333333333,7.5,1,l,l,-1600,-800,-1600,-400,S,=,L,0.426517192744338,0.364694151827807,1.11133428659413,1.53746636046256,1.59727835620254,674094.233101041,674094.679388991,674094.679388991,674097.079270388,2.4,674098.229567052,674098.229567052,674099.829504011,1.6,674101.516456975,674101.977554457,0.461097482359037,66,Shorter,Index,66,S,Index
201,Temporal,1243,2,2,35,800,3.75,3.33333333333333,1,l,l,-1600,-400,-1600,-800,=,L,S,0.315513424471023,0.357262828516753,1.80324916424945,1.15011693260852,1.05813852839954,674103.733167286,674104.059523465,674104.059523465,674107.259381699,3.2,674109.09943314,674109.09943314,674111.499398266,2.4,674112.799897921,674113.385637188,0.585739266476594,77,Shorter,Ring,66,=,Index
201,Temporal,1243,2,2,36,800,7.5,3.33333333333333,1,m,m,-800,400,-800,0,L,S,=,0.240637557026301,0.239009954078609,1.94653504004242,1.02312074542281,1.91546415076518,674114.583226105,674114.839736663,674114.839736663,674116.439495257,1.6,674118.409831387,674118.409831387,674120.809625525,2.4,674121.983244198,674122.56143596,0.578191761975177,66,Longer,Index,66,L,Index
201,Temporal,1243,2,2,37,800,5,5,1,m,m,-800,400,-800,0,=,L,S,0.422624994934051,0.44947429050713,1.96874658209828,1.97628806961697,1.83265275866356,674124.633267986,674125.06976346,674125.06976346,674127.469627212,2.4,674129.469852771,674129.469852771,674131.069646332,1.6,674133.183339958,674133.641560393,0.458220434607938,77,Shorter,Ring,77,S,Ring
201,Temporal,1243,2,2,38,800,5,5,1,r,r,0,400,0,800,S,=,L,0.374375652940656,0.203632683766287,1.93918460964622,1.80348882737422,1.92793495589215,674135.633326372,674136.019998431,674136.019998431,674136.819756768,0.8,674138.790243995,674138.790243995,674140.389700073,1.6,674142.333343278,674142.889622028,0.556278749951161,77,Longer,Ring,77,L,Ring
201,Temporal,1243,2,2,39,800,5,5,1,l,l,-1600,-1200,-1600,-800,=,L,S,0.290125404876239,0.422482966465047,1.3005114189033,1.59055965367074,1.02529756255489,674144.950102015,674145.259861333,674145.259861333,674146.059799961,0.8,674147.400170439,674147.400170439,674149.000132741,1.6,674150.733383186,674151.21753766,0.484154473757371,78,Longer,Middle,78,L,Middle
201,Temporal,1243,2,2,40,1200,10,5,1,l,l,-1600,0,-1600,-400,=,L,S,0.398445241721672,0.391534828849524,1.77919799404286,1.20462506349728,1.41155079667895,674152.383427505,674152.800384863,674152.800384863,674154.399912158,1.6,674156.210095342,674156.210095342,674158.610075546,2.4,674159.966775835,674160.497584522,0.530808686977252,78,Longer,Middle,78,L,Middle
201,Temporal,1243,2,2,41,800,7.5,3.33333333333333,1,r,r,0,1200,0,800,L,S,=,0.446447194727682,0.370329594690763,1.85743322263546,1.09442170956175,1.09020346886596,674162.066809231,674162.530356,674162.530356,674164.130168809,1.6,674166.020425739,674166.020425739,674168.420290775,2.4,674169.66682386,674170.321461419,0.654637559666298,66,Longer,Index,66,L,Index
201,Temporal,1243,2,2,42,1200,3.33333333333333,7.5,1,m,m,-800,0,-800,400,L,S,=,0.462522721581307,0.426525855764765,1.19591341286819,1.10915991635082,1.59405146951933,674171.550224369,674172.030723158,674172.030723158,674174.43025071,2.4,674175.660687847,674175.660687847,674177.260220275,1.6,674178.516901927,674179.033469578,0.516567651182413,78,Shorter,Middle,78,S,Middle
201,Temporal,1243,2,2,43,800,2.5,3.33333333333333,1,r,r,0,400,0,800,L,S,=,0.363002053979341,0.388707231749851,1.75600221539252,1.61124414684569,1.44045545320647,674180.783601508,674181.160630584,674181.160630584,674182.760530651,1.6,674184.550750336,674184.550750336,674186.950563723,2.4,674188.716969279,674189.209594285,0.492625005659647,66,Longer,Index,66,L,Index
201,Temporal,1243,2,2,44,1600,20,20,2,m,m,-800,800,-800,800,S,=,L,0.237649785121437,0.394340000655806,1.18745575161667,1.74357517341784,1.44799877538003,674190.800264277,674191.050796371,674191.050796371,674191.850628813,0.8,674193.070988923,674193.070988923,674193.87042325,0.8,674195.766953175,674196.185521635,0.418568460154347,78,Equals to,Middle,78,=,Middle
201,Temporal,1243,2,2,45,400,3.33333333333333,1.25,2,m,m,-800,0,-800,-400,=,L,S,0.465957083710453,0.397781071477847,1.37403260249987,1.58382781375915,1.37174808269521,674197.783658931,674198.260780751,674198.260780751,674200.660635201,2.4,674202.071001755,674202.071001755,674205.270825664,3.2,674207.000392887,674207.513496615,0.51310372853186,78,Longer,Middle,78,L,Middle
201,Temporal,1243,2,2,46,1600,5,5,2,l,l,-1600,-400,-1600,0,S,=,L,0.386105543373636,0.293689313630797,1.3426816628965,1.45046313551014,1.63645411034691,674209.033735523,674209.431100228,674209.431100228,674211.83068745,2.4,674213.210928786,674213.210928786,674216.410894168,3.2,674218.017080132,674218.641455812,0.624375679530203,77,Longer,Ring,77,L,Ring
201,Temporal,1243,2,2,47,1600,10,20,2,r,r,0,1600,0,1600,L,S,=,0.48945136363549,0.3614211442145,1.59637779891669,1.73035495764145,1.20243683740398,674220.417117473,674220.921303742,674220.921303742,674222.521085112,1.6,674224.141217581,674224.141217581,674224.941061572,0.8,674226.817112469,674227.233293201,0.416180732077919,78,Shorter,Middle,78,S,Middle
201,Temporal,1243,2,2,48,1600,6.66666666666667,5,2,m,m,-800,800,-800,800,L,S,=,0.31733097251486,0.472319604858682,1.52542890659387,1.67367580668329,1.23646634624556,674228.583834666,674228.921393566,674228.921393566,674231.321228447,2.4,674232.871385049,674232.871385049,674236.071282421,3.2,674237.883870372,674238.409483352,0.52561298024375,66,Longer,Index,66,L,Index
201,Temporal,1243,2,2,49,1200,5,5,1,r,r,0,800,0,1200,S,=,L,0.314545160488044,0.328086758212112,1.34012554500284,1.64093441148278,1.86345151705579,674239.483862691,674239.811482682,674239.811482682,674241.41131506,1.6,674242.791576927,674242.791576927,674245.191432659,2.4,674246.967231695,674247.409425928,0.442194233299233,77,Longer,Ring,78,=,Middle
201,Temporal,1243,2,2,50,800,1.66666666666667,5,1,l,l,-1600,-1200,-1600,-800,S,=,L,0.379569477293479,0.266135536317491,1.9312626794993,1.4038353528176,1.80983273098958,674249.433955721,674249.831660156,674249.831660156,674252.231461352,2.4,674254.201595056,674254.201595056,674255.801545489,1.6,674257.350621024,674257.81744514,0.466824116185308,66,Shorter,Index,66,S,Index
201,Temporal,1243,2,2,51,800,3.75,3.33333333333333,1,m,m,-800,400,-800,0,=,L,S,0.414847379151106,0.226686306121628,1.83593812625978,1.37801246684966,1.42892761757483,674259.784017588,674260.211719241,674260.211719241,674263.411403601,3.2,674265.281697674,674265.281697674,674267.681524213,2.4,674269.21724156,674270.105391107,0.888149547507055,77,Shorter,Ring,77,S,Ring
201,Temporal,1243,2,2,52,800,5,5,1,l,l,-1600,-1200,-1600,-800,=,L,S,0.21743713883984,0.364279281483789,1.02499212145242,1.88589097715652,1.863587878771,674271.684069205,674271.911917721,674271.911917721,674272.711839346,0.8,674273.771954761,674273.771954761,674275.371730678,1.6,674277.400744709,674277.769466657,0.368721947888844,78,Longer,Middle,78,L,Middle
201,Temporal,1243,2,2,53,1200,2.5,5,1,r,r,0,800,0,1200,S,=,L,0.240179977936652,0.203878469508944,1.80432164387112,1.61708852876793,1.91161806398804,674279.784130189,674280.04197432,674280.04197432,674283.241755242,3.2,674285.072146055,674285.072146055,674287.472019752,2.4,674289.234166793,674289.665364853,0.431198059697635,66,Shorter,Index,66,S,Index
201,Temporal,1243,2,2,54,1200,3.33333333333333,7.5,1,r,r,0,800,0,1200,L,S,=,0.398871085458817,0.466862433715321,1.79011001678837,1.5377052196088,1.2568001414903,674291.734199899,674292.152365124,674292.152365124,674294.551843594,2.4,674296.372007565,674296.372007565,674297.972043652,1.6,674299.650850815,674300.121444994,0.470594179583713,78,Shorter,Middle,78,S,Middle
201,Temporal,1243,2,2,55,1600,5,5,2,l,l,-1600,0,-1600,0,L,S,=,0.453798518228096,0.35370020294193,1.15331320223924,1.01991640684886,1.48636125528807,674301.517555721,674301.982127452,674301.982127452,674305.182078398,3.2,674306.372414663,674306.372414663,674309.572262632,3.2,674310.734285794,674311.929451182,1.19516538735479,77,Equals to,Ring,77,=,Ring
201,Temporal,1243,2,2,56,1200,2.5,5,1,l,l,-1600,-800,-1600,-400,=,L,S,0.340513384959903,0.397659020045324,1.20247277856063,1.67182440654821,1.79849791275279,674313.567648609,674313.922365917,674313.922365917,674317.122162557,3.2,674318.352346261,674318.352346261,674320.752220279,2.4,674322.567647647,674323.54543661,0.977788963122293,77,Shorter,Ring,77,S,Ring
201,Temporal,1243,2,2,57,800,1.25,3.33333333333333,1,l,l,-1600,-1200,-1600,-800,S,=,L,0.425558532139573,0.224216581936714,1.14289120764459,1.62222709021846,1.79630069573377,674325.50102416,674325.942598248,674325.942598248,674329.14242344,3.2,674330.31284208,674330.31284208,674332.71243283,2.4,674334.483956218,674335.665378968,1.18142274976708,66,Shorter,Index,66,S,Index
201,Temporal,1243,2,2,58,1200,5,5,1,m,m,-800,800,-800,400,S,=,L,0.208970016908831,0.384207146056528,1.00148564549753,1.63980787030068,1.21139039472017,674337.617758179,674337.842692532,674337.842692532,674341.042504891,3.2,674342.062789549,674342.062789549,674344.462531717,2.4,674346.251101233,674347.585440921,1.33433968864847,66,Shorter,Index,77,L,Ring
201,Temporal,1243,2,2,59,1600,3.75,5,2,m,m,-800,400,-800,800,=,L,S,0.416346803469624,0.392480481813848,1.12975266602912,1.48325383889212,1.12567025310456,674348.951137387,674349.382936643,674349.382936643,674352.582736812,3.2,674353.74312879,674353.74312879,674356.942661732,3.2,674358.567865889,674359.057434759,0.489568870631047,66,Equals to,Index,78,L,Middle
201,Temporal,1243,2,2,60,1600,7.5,20,2,l,l,-1600,-400,-1600,0,L,S,=,0.314965527073192,0.324228146117069,1.08504517507454,1.6901562613678,1.40556734354202,674360.317879025,674360.653094147,674360.653094147,674362.252917542,1.6,674363.373186191,674363.373186191,674364.173027295,0.8,674366.001225784,674366.457262938,0.456037154071964,78,Shorter,Middle,78,S,Middle
201,Temporal,1243,2,2,61,400,1.25,1.25,2,m,m,-800,-400,-800,-400,L,S,=,0.404444032816697,0.445250898186949,1.97393864810855,1.55196953801949,1.48684878582107,674368.001266526,674368.423372433,674368.423372433,674371.622926226,3.2,674373.623252838,674373.623252838,674376.823070972,3.2,674378.517968321,674378.961372891,0.443404570105486,77,Equals to,Ring,66,L,Index
201,Temporal,1243,2,2,62,400,2.5,5,2,r,r,0,400,0,400,S,=,L,0.411687174982256,0.401022761814916,1.85822248348356,1.02818194611785,1.42432828693105,674380.601316442,674381.02333862,674381.02333862,674382.623323058,1.6,674384.503357637,674384.503357637,674385.303227613,0.8,674386.484636318,674386.913368423,0.428732104483061,66,Shorter,Index,66,S,Index
201,Temporal,1243,2,2,63,1200,6.66666666666667,7.5,1,r,r,0,1600,0,1200,S,=,L,0.384255686625229,0.345681558682238,1.33417255534273,1.45925089443559,1.50823161392799,674388.484704007,674388.8834318,674388.8834318,674391.283311913,2.4,674392.653630527,674392.653630527,674394.253433071,1.6,674395.85140569,674396.289333756,0.437928065424785,66,Shorter,Index,78,=,Middle
201,Temporal,1243,2,2,64,1200,10,7.5,1,l,l,-1600,-800,-1600,-400,S,=,L,0.469254174243562,0.206391517333361,1.50870141767093,1.07758981027976,1.77748397959661,674397.934728372,674398.423760924,674398.423760924,674399.22353915,0.8,674400.763763086,674400.763763086,674402.363530983,1.6,674403.601403059,674404.913416222,1.3120131631149,77,Longer,Ring,66,S,Index
201,Temporal,1243,2,2,65,1600,6.66666666666667,5,2,l,l,-1600,0,-1600,0,S,=,L,0.205106174526387,0.272245249863446,1.31605513902303,1.36343455714191,1.2767820864935,674406.851444362,674407.073680451,674407.073680451,674409.473483571,2.4,674410.813934571,674410.813934571,674414.013504083,3.2,674415.53479465,674415.961395988,0.426601338549517,77,Longer,Ring,77,L,Ring
201,Temporal,1243,2,2,66,400,10,5,2,m,m,-800,0,-800,-400,L,S,=,0.38089460820619,0.294753117699836,1.43802109682658,1.65641642285609,1.2426951795122,674417.384825559,674417.783969753,674417.783969753,674418.583769794,0.8,674420.053977763,674420.053977763,674420.853789674,0.8,674422.651511987,674423.153487004,0.501975016668439,77,Equals to,Ring,77,=,Ring
201,Temporal,1243,2,2,67,800,5,5,1,m,m,-800,400,-800,0,=,L,S,0.352395449052938,0.290675124288619,1.75185371315674,1.9115242502957,1.80994608513671,674424.534901798,674424.90389158,674424.90389158,674427.30371844,2.4,674429.084094962,674429.084094962,674430.683877936,1.6,674432.751590295,674433.19349324,0.441902944818139,77,Shorter,Ring,66,=,Index
201,Temporal,1243,2,2,68,1200,6.66666666666667,7.5,1,m,m,-800,800,-800,400,S,=,L,0.378470444408614,0.460583741571957,1.39097796579447,1.58809973937883,1.41021938755967,674435.151589767,674435.544117437,674435.544117437,674437.943996588,2.4,674439.354015073,674439.354015073,674440.954076824,1.6,674442.684932162,674443.105393994,0.420461832778528,66,Shorter,Index,66,S,Index
201,Temporal,1243,2,2,69,800,1.66666666666667,5,1,l,l,-1600,-1200,-1600,-800,S,=,L,0.440564858007105,0.305392241667291,1.35265767781233,1.65219389416348,1.20758177828245,674444.668323287,674445.124241709,674445.124241709,674447.524004088,2.4,674448.904448813,674448.904448813,674450.503960709,1.6,674452.301699432,674452.825167162,0.523467729683034,66,Shorter,Index,66,S,Index
201,Temporal,1243,2,2,70,800,1.66666666666667,5,1,r,r,0,400,0,800,=,L,S,0.304379894375044,0.491134411507116,1.55107290514503,1.02879888787768,1.87666934405262,674454.168382475,674454.484258699,674454.484258699,674456.884050913,2.4,674458.464369947,674458.464369947,674460.064257503,1.6,674461.251694395,674461.825479302,0.573784906766377,77,Shorter,Ring,77,S,Ring
201,Temporal,1243,2,2,71,800,7.5,3.33333333333333,1,m,m,-800,400,-800,0,=,L,S,0.412789187501642,0.492010758075538,1.0519560388961,1.17665345595467,1.84299279814494,674463.835105924,674464.26439266,674464.26439266,674465.864460506,1.6,674466.954566723,674466.954566723,674469.354366315,2.4,674470.685124098,674471.169263718,0.484139620210044,78,Longer,Middle,66,=,Index
201,Temporal,1243,2,2,72,800,1.25,3.33333333333333,1,m,m,-800,-400,-800,0,S,=,L,0.344046392449416,0.427071047627853,1.29837008024248,1.87586964121652,1.64782631573255,674473.168475508,674473.524779502,674473.524779502,674476.724589616,3.2,674478.044675472,674478.044675472,674480.444511956,2.4,674482.451840424,674482.857371818,0.405531393829733,66,Shorter,Index,78,=,Middle
201,Temporal,1243,2,2,73,1200,5,5,1,r,r,0,800,0,1200,S,=,L,0.344428728672686,0.494524895121661,1.18282809952487,1.48927025605293,1.55931532221077,674483.735148238,674484.094930044,674484.094930044,674485.694628648,1.6,674486.914862362,674486.914862362,674489.314646876,2.4,674490.951862399,674491.457512201,0.505649801809341,77,Longer,Ring,77,L,Ring
201,Temporal,1243,2,2,74,800,5,5,1,r,r,0,1200,0,800,L,S,=,0.479566590460778,0.450375104724409,1.23244036626317,1.09393921400237,1.31845182143956,674493.151935927,674493.644878411,674493.644878411,674496.044605181,2.4,674497.314931141,674497.314931141,674498.91488382,1.6,674500.168577844,674501.46536928,1.29679143615067,78,Shorter,Middle,77,=,Ring
201,Temporal,1243,2,2,75,1600,15,20,2,m,m,-800,400,-800,800,=,L,S,0.333843969992364,0.484777973258469,1.82050739944459,1.3249266260875,1.1549262103025,674502.935313739,674503.284991026,674503.284991026,674504.08476829,0.8,674505.93521371,674505.93521371,674506.734711877,0.8,674508.201535101,674508.705604954,0.504069852642715,66,Equals to,Index,78,L,Middle
201,Temporal,1243,2,2,76,400,1.66666666666667,1.25,2,m,m,-800,-400,-800,-400,S,=,L,0.266901707728702,0.319243165299722,1.44857969318976,1.02643088596624,1.1900288737191,674510.00199218,674510.285309261,674510.285309261,674512.685093454,2.4,674514.165254622,674514.165254622,674517.365075644,3.2,674518.552027163,674519.15338531,0.601358146639541,77,Longer,Ring,77,L,Ring
201,Temporal,1243,2,2,77,1200,5,5,1,m,m,-800,800,-800,400,S,=,L,0.280292851634664,0.374889987141462,1.48992272772221,1.49917898771276,1.77000568381546,674520.485402714,674520.78538481,674520.78538481,674523.985166052,3.2,674525.505326077,674525.505326077,674527.905125348,2.4,674529.552110812,674529.993372875,0.441262062988244,66,Shorter,Index,77,L,Ring
201,Temporal,1243,2,2,78,800,2.5,3.33333333333333,1,m,m,-800,-400,-800,0,S,=,L,0.479106373890001,0.356645191543522,1.57113044140149,1.15865802898644,1.72939348399575,674531.902119185,674532.395271153,674532.395271153,674533.995376212,1.6,674535.605603924,674535.605603924,674538.005392609,2.4,674539.302126692,674539.849500945,0.547374252928421,77,Longer,Ring,77,L,Ring
201,Temporal,1243,2,2,79,400,10,5,2,l,l,-1600,-800,-1600,-1200,L,S,=,0.243845654625353,0.421478153851097,1.7502882374535,1.53743980409673,1.29421788621462,674541.718854391,674541.975523104,674541.975523104,674542.775610584,0.8,674544.555694214,674544.555694214,674545.355424961,0.8,674547.035525662,674547.53749933,0.501973668346182,77,Equals to,Ring,77,=,Ring
201,Temporal,1243,2,2,80,1200,10,7.5,1,r,r,0,800,0,1200,L,S,=,0.484509092472306,0.377192629434999,1.12667426669397,1.89626358617248,1.06484749728539,674548.968887995,674549.465701274,674549.465701274,674550.265489446,0.8,674551.425941414,674551.425941414,674553.025662794,1.6,674555.068878403,674555.473052163,0.404173760442063,66,Longer,Index,66,L,Index
201,Temporal,1243,2,2,81,1200,20,7.5,1,m,m,-800,800,-800,400,L,S,=,0.271521525423687,0.379039751050869,1.79803754417693,1.04298435685796,1.84928609451086,674556.685583389,674556.975649821,674556.975649821,674557.775460769,0.8,674559.595651367,674559.595651367,674561.19566179,1.6,674562.38561762,674563.329248243,0.943630623049103,66,Longer,Index,66,L,Index
201,Temporal,1243,2,2,82,400,5,5,2,r,r,0,400,0,400,L,S,=,0.238290266025689,0.414183621440457,1.5701560338307,1.79506094603893,1.59607031456956,674565.318972494,674565.576097532,674565.576097532,674566.375590245,0.8,674567.97585738,674567.97585738,674568.77572928,0.8,674570.718514341,674571.185497575,0.466983233927749,77,Equals to,Ring,77,=,Ring
201,Temporal,1243,2,2,83,1200,10,7.5,1,r,r,0,800,0,1200,S,=,L,0.372716666543177,0.331705838686167,1.16838466970183,1.52863402401007,1.35475103110816,674572.919002666,674573.305935537,674573.305935537,674574.105737823,0.8,674575.306073802,674575.306073802,674576.90580224,1.6,674578.585700579,674579.153426693,0.567726114066318,77,Longer,Ring,77,L,Ring
201,Temporal,1243,2,2,84,400,5,5,2,r,r,0,800,0,400,=,L,S,0.332016814878523,0.327597144375589,1.96022404342515,1.73510711836678,1.66739995019641,674580.652376548,674580.995947596,674580.995947596,674582.595847984,1.6,674584.596017081,674584.596017081,674585.39588834,0.8,674587.285694579,674587.769290537,0.483595957746729,77,Shorter,Ring,77,S,Ring
201,Temporal,1243,2,2,85,800,3.75,3.33333333333333,1,r,r,0,1200,0,800,S,=,L,0.303455564044931,0.316660982486413,1.55035934665226,1.2700355452982,1.62283505578944,674589.585770385,674589.906307218,674589.906307218,674593.106119898,3.2,674594.686232657,674594.686232657,674597.086028079,2.4,674598.50246039,674599.073068717,0.570608326932415,66,Shorter,Index,78,=,Middle
201,Temporal,1243,2,2,86,800,15,5,1,m,m,-800,400,-800,0,S,=,L,0.406756338169089,0.342376686864698,1.6655221502149,1.020267190307,1.67109465404572,674600.835837994,674601.256377105,674601.256377105,674602.056136404,0.8,674603.746528007,674603.746528007,674605.346365517,1.6,674606.519140161,674607.761393037,1.24225287593436,77,Longer,Ring,78,=,Middle
201,Temporal,1243,2,2,87,1200,2.5,5,1,m,m,-800,0,-800,400,S,=,L,0.412873165554968,0.334994418763667,1.8072288307326,1.89338857536129,1.38931690692079,674609.585876249,674610.016378182,674610.016378182,674613.21628165,3.2,674615.05645692,674615.05645692,674617.456310407,2.4,674619.502587428,674620.7692437,1.26665627211332,66,Shorter,Index,66,S,Index
201,Temporal,1243,2,2,88,1600,3.75,5,2,r,r,0,1200,0,1600,L,S,=,0.316645377155206,0.295284490262651,1.00827071353696,1.96094798389862,1.58105558309683,674622.30258993,674622.63661648,674622.63661648,674625.836444239,3.2,674626.876880385,674626.876880385,674630.076699802,3.2,674632.185941885,674632.825432465,0.639490579487756,77,Equals to,Ring,66,L,Index
201,Temporal,1243,2,2,89,800,2.5,3.33333333333333,1,l,l,-1600,-1200,-1600,-800,=,L,S,0.284581094046061,0.482685744524136,1.2189249365449,1.26038096082938,1.49363586411512,674634.55264599,674634.856934209,674634.856934209,674636.456710767,1.6,674637.706936567,674637.706936567,674640.106789733,2.4,674641.519368621,674642.033295383,0.513926761806943,78,Longer,Middle,78,L,Middle
201,Temporal,1243,2,2,90,1200,10,5,1,m,m,-800,800,-800,400,S,=,L,0.272271011672277,0.413070109340785,1.91704015340565,1.43537537023599,1.12288579174281,674643.686047269,674643.977075144,674643.977075144,674645.576887953,1.6,674647.517041119,674647.517041119,674649.916823067,2.4,674651.502718956,674651.961260289,0.458541333209723,77,Longer,Ring,78,=,Middle
201,Temporal,1243,2,2,91,1200,6.66666666666667,7.5,1,l,l,-1600,0,-1600,-400,L,S,=,0.331776962579207,0.48017792028798,1.09397683463736,1.05320874526029,1.8593397617227,674653.236099576,674653.586851773,674653.586851773,674655.986833901,2.4,674657.107302089,674657.107302089,674658.707114577,1.6,674659.902806584,674660.769084903,0.866278319503181,78,Shorter,Middle,77,=,Ring
201,Temporal,1243,2,2,92,400,3.33333333333333,1.25,2,r,r,0,800,0,400,S,=,L,0.230843812905348,0.403861131124344,1.7494616006066,1.27723834326321,1.23407152578892,674662.786148353,674663.036993551,674663.036993551,674665.437024762,2.4,674667.217461594,674667.217461594,674670.417237062,3.2,674671.852818998,674672.649292038,0.796473040245473,77,Longer,Ring,77,L,Ring
201,Temporal,1243,2,2,93,800,15,5,1,m,m,-800,400,-800,0,L,S,=,0.252441621648614,0.37078679158933,1.55534919099986,1.89631311945299,1.20872827616979,674674.036197998,674674.307429511,674674.307429511,674675.107299166,0.8,674676.687365088,674676.687365088,674678.287180142,1.6,674680.336191999,674680.825408084,0.489216085290536,66,Longer,Index,66,L,Index
201,Temporal,1243,2,2,94,800,15,5,1,r,r,0,1200,0,800,S,=,L,0.381194508215686,0.251971676575086,1.25307925396064,1.89592845365302,1.68054939738613,674682.169593823,674682.567582809,674682.567582809,674683.367396003,0.8,674684.657299538,674684.657299538,674686.257283976,1.6,674688.302905919,674688.89728021,0.594374290434644,77,Longer,Ring,77,L,Ring
201,Temporal,1243,2,2,95,1200,2.5,5,1,m,m,-800,0,-800,400,L,S,=,0.446857801617517,0.351244010796575,1.71633629588022,1.03264369028751,1.97568379775241,674690.736315315,674691.197481414,674691.197481414,674694.397276771,3.2,674696.147715743,674696.147715743,674698.547544528,2.4,674699.736353683,674700.465233581,0.728879897505976,78,Shorter,Middle,77,=,Ring
201,Temporal,1243,2,2,96,400,1.66666666666667,1.25,2,r,r,0,400,0,400,=,L,S,0.360452063549116,0.213728486313467,1.14352854652591,1.85602199484776,1.74926759915424,674702.603016371,674702.97775396,674702.97775396,674705.377559327,2.4,674706.547982458,674706.547982458,674709.747486206,3.2,674711.753017863,674712.201401327,0.448383463430218,78,Longer,Middle,78,L,Middle
