Subject,Task,SequenceOrder,ListNo,RunNo,TrialNo,Aud_Probe_Dist,Aud_Standard_Vel,Aud_Probe_Vel,Main_Control,Aud_Std_StartCode,Aud_Probe_StartCode,Aud_Std_StartPt,Aud_Std_EndPt,Aud_Probe_StartPt,Aud_Probe_EndPt,RespIndex,RespMiddle,RespRing,ISI_Cross_Std,ISI_Cross_Probe,ISI_Std_Probe,ISI_Probe_Response,ITI,TrialOnset,StdOnset,StdOnsetByStop,StdOffset,StdDur,ProbeOnset,ProbeOnsetByStop,ProbeOffset,ProbeDur,RespWinStart,RespTime,RT,CorrectKC,CorrectResponse,CorrectFinger,SubjRespKC,SubjResponse,SubjRespFinger
221,Spatial,2314,4,4,1,1600,20,20,2,r,r,0,1600,0,1600,S,=,L,0.427270557009863,0.490091427481642,1.8939389037927,1.63921930450588,1.3626690000361,273992.475303367,273992.913592214,273992.913592214,273993.713279131,0.8,273995.633457503,273995.633457503,273996.433352299,0.8,273998.208699331,273998.571041638,0.362342307693325,78,Equals to,Middle,78,=,Middle
221,Spatial,2314,4,4,2,400,10,5,2,r,r,0,800,0,400,L,S,=,0.431544466946187,0.280406516562725,1.78319012696718,1.99299793033859,1.26450065948796,274000.075412568,274000.523410172,274000.523410172,274001.323449329,0.8,274003.143611212,274003.143611212,274003.943379291,0.8,274006.075376317,274006.450996187,0.375619869970251,78,Shorter,Middle,77,=,Ring
221,Spatial,2314,4,4,3,800,5,5,1,m,m,-800,-400,-800,0,=,L,S,0.427533414878109,0.205377047977942,1.02107823426763,1.36168696408828,1.7177592407729,274007.87542001,274008.313651434,274008.313651434,274009.113490411,0.8,274010.163607132,274010.163607132,274011.76356102,1.6,274013.27541924,274013.627065886,0.35164664540207,78,Longer,Middle,78,L,Middle
221,Spatial,2314,4,4,4,1600,7.5,20,2,m,m,-800,400,-800,800,=,L,S,0.4281649816532,0.283737092890937,1.02284478837707,1.70903733930329,1.66960049362057,274015.508796395,274015.953936615,274015.953936615,274017.553774372,1.6,274018.614038386,274018.614038386,274019.413874154,0.8,274021.258826711,274021.587034909,0.328208198014181,78,Longer,Middle,77,S,Ring
221,Spatial,2314,4,4,5,800,7.5,3.33333333333333,1,l,l,-1600,-400,-1600,-800,S,=,L,0.43017371041947,0.423077120003985,1.70621657284188,1.07848297943339,1.97519552520826,274023.408890583,274023.854072506,274023.854072506,274025.453969612,1.6,274027.193871607,274027.193871607,274029.59390576,2.4,274030.825524688,274031.226978756,0.401454067847226,66,Shorter,Index,77,L,Ring
221,Spatial,2314,4,4,6,800,1.66666666666667,5,1,l,l,-1600,-1200,-1600,-800,=,L,S,0.226574614405544,0.408126160799903,1.99868596658868,1.41601117501546,1.47357251933341,274033.342294621,274033.584250301,274033.584250301,274035.984120845,2.4,274038.004232619,274038.004232619,274039.604110797,1.6,274041.175586571,274041.571154561,0.395567989849951,78,Longer,Middle,77,S,Ring
221,Spatial,2314,4,4,7,1200,3.33333333333333,7.5,1,m,m,-800,0,-800,400,S,=,L,0.450188860123178,0.441320313133296,1.99780962091416,1.93369755336933,1.53985166326091,274043.192349767,274043.654229443,274043.654229443,274046.054219966,2.4,274048.084286873,274048.084286873,274049.684150615,1.6,274051.758998982,274052.099024248,0.340025266341399,77,Longer,Ring,66,S,Index
221,Spatial,2314,4,4,8,1200,2.5,5,1,m,m,-800,0,-800,400,=,L,S,0.406839254301048,0.32395217098395,1.36914781467935,1.52796106892523,1.14926816232281,274053.792422656,274054.214256018,274054.214256018,274057.414358245,3.2,274058.814634051,274058.814634051,274061.214489196,2.4,274062.892397181,274063.275050959,0.38265377812786,78,Longer,Middle,78,L,Middle
221,Spatial,2314,4,4,9,1200,10,7.5,1,r,r,0,800,0,1200,L,S,=,0.346982906706029,0.299700969972553,1.65385572008414,1.03607962296275,1.62937936342031,274064.575774753,274064.934775102,274064.934775102,274065.734299051,0.8,274067.414538581,274067.414538581,274069.014370885,1.6,274070.192442799,274070.619072779,0.426629979687277,66,Longer,Index,66,L,Index
221,Spatial,2314,4,4,10,800,15,5,1,r,r,0,1200,0,800,L,S,=,0.283778550556257,0.388563168362822,1.19006513246207,1.15348488541886,1.00723297110124,274072.392534172,274072.694810916,274072.694810916,274073.494638985,0.8,274074.71474877,274074.71474877,274076.314586207,1.6,274077.609155822,274078.227269082,0.618113259843085,78,Shorter,Middle,66,L,Index
221,Spatial,2314,4,4,11,1600,15,20,2,r,r,0,1200,0,1600,=,L,S,0.306758607179146,0.203911487746619,1.66396144514293,1.78666595504653,1.16353991288475,274079.375900893,274079.694979979,274079.694979979,274080.494833712,0.8,274082.184728104,274082.184728104,274082.984553607,0.8,274084.909206252,274085.283094753,0.373888500733301,78,Longer,Middle,66,=,Index
221,Spatial,2314,4,4,12,800,15,5,1,m,m,-800,400,-800,0,L,S,=,0.281465318729949,0.337523193372142,1.40302092200388,1.59707431408608,1.88926205203903,274086.592575195,274086.894973819,274086.894973819,274087.694838139,0.8,274089.12499378,274089.12499378,274090.724933873,1.6,274092.475943367,274092.883035854,0.407092486624606,78,Shorter,Middle,66,L,Index
221,Spatial,2314,4,4,13,400,1.66666666666667,1.25,2,l,l,-1600,-1200,-1600,-1200,=,L,S,0.369040265343013,0.444578797089114,1.56915252996614,1.69405754054615,1.66897503629493,274094.926003453,274095.314924057,274095.314924057,274097.714810319,2.4,274099.315018052,274099.315018052,274102.515045852,3.2,274104.359322799,274104.835137525,0.47581472521415,66,Equals to,Index,66,=,Index
221,Spatial,2314,4,4,14,400,2.5,1.25,2,r,r,0,800,0,400,S,=,L,0.249432485171568,0.220038274958628,1.33780979053962,1.63988483619975,1.7727478709337,274106.659426162,274106.92532812,274106.92532812,274110.125202898,3.2,274111.495421787,274111.495421787,274114.695022921,3.2,274116.476067517,274116.874890687,0.39882316935109,66,Shorter,Index,78,=,Middle
221,Spatial,2314,4,4,15,1200,10,7.5,1,r,r,0,800,0,1200,=,L,S,0.45217510332971,0.297355833609492,1.60142594037801,1.40946688803765,1.28089456865352,274118.792824041,274119.255211867,274119.255211867,274120.055265461,0.8,274121.695547799,274121.695547799,274123.295375932,1.6,274124.842784486,274125.371115808,0.528331321896985,78,Longer,Middle,78,L,Middle
221,Spatial,2314,4,4,16,400,5,5,2,l,l,-1600,-1200,-1600,-1200,S,=,L,0.278904452052429,0.33143845112929,1.7119360934706,1.63608630762225,1.10852775788479,274126.792876011,274127.085679154,274127.085679154,274127.885257319,0.8,274129.615575991,274129.615575991,274130.415431328,0.8,274132.192840594,274132.539159036,0.346318442374468,78,Equals to,Middle,78,=,Middle
221,Spatial,2314,4,4,17,800,7.5,3.33333333333333,1,l,l,-1600,-400,-1600,-800,S,=,L,0.304445143998023,0.254840754015458,1.69469833056066,1.36230940115815,1.85174973616043,274133.792927018,274134.115808572,274134.115808572,274135.71533034,1.6,274137.435801669,274137.435801669,274139.835652002,2.4,274141.342893879,274141.66691593,0.324022050655913,66,Shorter,Index,77,L,Ring
221,Spatial,2314,4,4,18,1200,5,5,1,m,m,-800,800,-800,400,S,=,L,0.264749746487959,0.258548416326108,1.10267104658336,1.65801230185507,1.05588423427025,274143.67632217,274143.955719633,274143.955719633,274147.155580296,3.2,274148.295822854,274148.295822854,274150.695697568,2.4,274152.492958713,274152.85892308,0.365964366588742,66,Shorter,Index,78,=,Middle
221,Spatial,2314,4,4,19,1600,3.75,5,2,l,l,-1600,-400,-1600,0,S,=,L,0.38373169781162,0.308735498681804,1.44957486024283,1.979033474132,1.51410853380696,274154.059701953,274154.455964405,274154.455964405,274157.655926121,3.2,274159.146142662,274159.146142662,274162.34602129,3.2,274164.476371959,274164.835108332,0.358736373134889,77,Longer,Ring,78,=,Middle
221,Spatial,2314,4,4,20,800,5,5,1,l,l,-1600,-1200,-1600,-800,=,L,S,0.31932613920231,0.352454049719184,1.57480467399841,1.80696631977549,1.35581291225368,274166.509747894,274166.846243651,274166.846243651,274167.645789735,0.8,274169.246217858,274169.246217858,274170.846106623,1.6,274172.79309191,274173.171086679,0.377994768321514,78,Longer,Middle,78,L,Middle
221,Spatial,2314,4,4,21,1200,6.66666666666667,7.5,1,r,r,0,1600,0,1200,L,S,=,0.293923152515521,0.383732067514507,1.68935355601089,1.33419236773661,1.22442284178124,274174.676513689,274174.986217974,274174.986217974,274177.385941269,2.4,274179.116147019,274179.116147019,274180.716124967,1.6,274182.193206651,274182.530985318,0.337778667453676,78,Shorter,Middle,78,S,Middle
221,Spatial,2314,4,4,22,1200,3.33333333333333,7.5,1,r,r,0,800,0,1200,L,S,=,0.351044026121395,0.426390092783753,1.75261678004064,1.92892874325876,1.94510557231481,274183.909891165,274184.276374223,274184.276374223,274186.676282622,2.4,274188.456470952,274188.456470952,274190.056371586,1.6,274192.143229823,274192.443315862,0.300086039118469,66,Longer,Index,78,S,Middle
221,Spatial,2314,4,4,23,800,2.5,3.33333333333333,1,r,r,0,400,0,800,L,S,=,0.387367944334679,0.235741615237726,1.27338938410946,1.10494209087363,1.83388655678041,274194.543255359,274194.946670446,274194.946670446,274196.546501146,1.6,274197.84652724,274197.84652724,274200.246391367,2.4,274201.493334763,274201.971139996,0.477805233502295,66,Longer,Index,66,L,Index
221,Spatial,2314,4,4,24,1200,5,5,1,m,m,-800,800,-800,400,L,S,=,0.429690163944147,0.29440535463593,1.63951276024582,1.90809298423841,1.22366730645173,274203.960027409,274204.406725123,274204.406725123,274207.606606638,3.2,274209.276601993,274209.276601993,274211.67652579,2.4,274213.726701904,274214.107090498,0.380388594057877,78,Shorter,Middle,77,=,Ring
221,Spatial,2314,4,4,25,1200,20,7.5,1,m,m,-800,800,-800,400,L,S,=,0.269247175815294,0.309600425136267,1.91159072183894,1.56404714808715,1.66863396426728,274215.093384225,274215.376902392,274215.376902392,274216.176767995,0.8,274218.116888071,274218.116888071,274219.716716847,1.6,274221.426727824,274221.746948369,0.320220545108896,78,Shorter,Middle,66,L,Index
221,Spatial,2314,4,4,26,800,1.25,3.33333333333333,1,m,m,-800,-400,-800,0,S,=,L,0.443437633766896,0.420117047892418,1.03798723262897,1.73842869409253,1.94650440896981,274223.560162821,274224.016950179,274224.016950179,274227.216979904,3.2,274228.277079667,274228.277079667,274230.677007955,2.4,274232.560174144,274233.018956841,0.458782696980052,77,Longer,Ring,78,=,Middle
221,Spatial,2314,4,4,27,400,10,5,2,l,l,-1600,-800,-1600,-1200,L,S,=,0.337201616570572,0.384257282900921,1.52443786372936,1.88349790492547,1.24052296822045,274235.126919921,274235.476988816,274235.476988816,274236.276773577,0.8,274237.837290383,274237.837290383,274238.637119736,0.8,274240.676853098,274241.067136514,0.390283415908925,78,Shorter,Middle,77,=,Ring
221,Spatial,2314,4,4,28,1600,5,5,2,r,r,0,1600,0,1600,S,=,L,0.261945426508302,0.347270375437178,1.4940716191124,1.57095721631638,1.11639093220463,274242.460280201,274242.737117342,274242.737117342,274245.937191659,3.2,274247.467215578,274247.467215578,274250.667120833,3.2,274252.376923289,274252.770971318,0.394048029207625,78,Equals to,Middle,78,=,Middle
221,Spatial,2314,4,4,29,1200,5,5,1,l,l,-1600,-800,-1600,-400,=,L,S,0.295369535940078,0.209326186113384,1.03749032545093,1.61473624074412,1.68136621270254,274254.043631981,274254.357075215,274254.357075215,274255.95713625,1.6,274257.027463828,274257.027463828,274259.427298442,2.4,274261.193712283,274261.715184144,0.521471860993188,78,Longer,Middle,78,L,Middle
221,Spatial,2314,4,4,30,1200,3.33333333333333,7.5,1,m,m,-800,0,-800,400,L,S,=,0.358121497684041,0.309350310429756,1.01716956656809,1.79938235078425,1.47235863789868,274263.560372079,274263.937359484,274263.937359484,274266.337346158,2.4,274267.397468056,274267.397468056,274268.997352009,1.6,274270.943706279,274271.355213003,0.411506724311039,66,Longer,Index,78,S,Middle
221,Spatial,2314,4,4,31,800,1.66666666666667,5,1,m,m,-800,-400,-800,0,L,S,=,0.422413892808654,0.382527948929409,1.57201029415384,1.26008485910489,1.12481599394903,274272.977089914,274273.417888076,274273.417888076,274275.817382639,2.4,274277.417614111,274277.417614111,274279.017443207,1.6,274280.427163174,274280.82715725,0.399994075763971,66,Longer,Index,78,S,Middle
221,Spatial,2314,4,4,32,1200,5,5,1,m,m,-800,800,-800,400,L,S,=,0.4291287802801,0.351414890701308,1.32479800197019,1.47482475090746,1.79114819581712,274282.093855484,274282.537799753,274282.537799753,274285.737685438,3.2,274287.09778302,274287.09778302,274289.497650997,2.4,274291.110505116,274291.547175882,0.436670766503084,78,Shorter,Middle,77,=,Ring
221,Spatial,2314,4,4,33,400,1.25,1.25,2,r,r,0,400,0,400,L,S,=,0.406437649383944,0.456349037088108,1.75533871131366,1.66850169896168,1.65705591676891,274293.493882303,274293.918084728,274293.918084728,274297.117941541,3.2,274298.897992568,274298.897992568,274302.097935035,3.2,274303.910648505,274304.307285802,0.396637297410052,77,Equals to,Ring,77,=,Ring
221,Spatial,2314,4,4,34,1200,6.66666666666667,7.5,1,m,m,-800,800,-800,400,=,L,S,0.271577387053899,0.461577433346054,1.85413598994581,1.42117742499288,1.04496187556109,274306.110674499,274306.398016949,274306.398016949,274308.79788268,2.4,274310.67815583,274310.67815583,274312.278012515,1.6,274313.844026311,274314.347305871,0.503279560478404,77,Shorter,Ring,66,=,Index
221,Spatial,2314,4,4,35,800,5,5,1,r,r,0,1200,0,800,S,=,L,0.225929665515347,0.460045824890954,1.64197755882929,1.33439179796312,1.11962642881602,274315.544025605,274315.788187442,274315.788187442,274318.188266507,2.4,274319.868228543,274319.868228543,274321.468096135,1.6,274322.944097583,274323.275172543,0.331074960122351,66,Shorter,Index,78,=,Middle
221,Spatial,2314,4,4,36,1600,3.75,5,2,m,m,-800,400,-800,800,S,=,L,0.496250242406203,0.25087311001975,1.92544796850652,1.82752105365716,1.66782751066878,274324.544124733,274325.058526459,274325.058526459,274328.258419844,3.2,274330.218686617,274330.218686617,274333.418245084,3.2,274335.393738134,274335.939176231,0.545438097033184,77,Longer,Ring,77,L,Ring
221,Spatial,2314,4,4,37,800,15,5,1,m,m,-800,400,-800,0,L,S,=,0.414974557919335,0.215858630913361,1.79763866194241,1.15810641629718,1.1120171073257,274337.760830441,274338.188698031,274338.188698031,274338.988556576,0.8,274340.828747101,274340.828747101,274342.428537059,1.6,274343.727535027,274344.1072355,0.379700473451521,78,Shorter,Middle,66,L,Index
221,Spatial,2314,4,4,38,1200,2.5,5,1,l,l,-1600,-800,-1600,-400,=,L,S,0.377186587406987,0.270890650917237,1.74091895043386,1.93008574696824,1.30474310020324,274345.377550137,274345.768725338,274345.768725338,274348.968700848,3.2,274350.728658431,274350.728658431,274353.128673015,2.4,274355.210929345,274355.59517783,0.384248485672288,78,Longer,Middle,77,S,Ring
221,Spatial,2314,4,4,39,800,1.25,3.33333333333333,1,m,m,-800,-400,-800,0,S,=,L,0.248395203056175,0.443139481387416,1.69220268618503,1.19534706009004,1.71866033044987,274357.044333254,274357.309033487,274357.309033487,274360.508597087,3.2,274362.238938536,274362.238938536,274364.638788869,2.4,274365.994381492,274366.427029058,0.432647565205116,77,Longer,Ring,66,S,Index
221,Spatial,2314,4,4,40,800,7.5,3.33333333333333,1,m,m,-800,400,-800,0,L,S,=,0.434496501501769,0.391902748351895,1.58156776799303,1.38306482706963,1.73201915575495,274368.294405595,274368.748979002,274368.748979002,274370.348856539,1.6,274371.959110833,274371.959110833,274374.358973035,2.4,274375.894378776,274376.875177163,0.980798386735842,78,Shorter,Middle,77,=,Ring
221,Spatial,2314,4,4,41,400,3.33333333333333,1.25,2,r,r,0,800,0,400,L,S,=,0.244792607767357,0.390004185898019,1.10726034710257,1.33069311232541,1.13865648057857,274378.761110181,274379.019120726,274379.019120726,274381.418998007,2.4,274382.549410545,274382.549410545,274385.748999489,3.2,274387.227843291,274387.619037812,0.391194520285353,78,Shorter,Middle,66,L,Index
221,Spatial,2314,4,4,42,400,2.5,5,2,r,r,0,400,0,400,S,=,L,0.458412771206686,0.405219685252536,1.97993029990657,1.64494961235465,1.15996364713274,274388.911203887,274389.389441907,274389.389441907,274390.989295384,1.6,274393.009497945,274393.009497945,274393.80931254,0.8,274395.611167572,274395.99523705,0.384069478081074,78,Equals to,Middle,66,S,Index
221,Spatial,2314,4,4,43,800,2.5,3.33333333333333,1,r,r,0,400,0,800,=,L,S,0.396390909305057,0.41235756906781,1.61471496324577,1.01806970787119,1.84884520483142,274397.29456587,274397.709592517,274397.709592517,274399.309441824,1.6,274400.959639515,274400.959639515,274403.359521928,2.4,274404.527960864,274404.987255172,0.459294307336677,78,Longer,Middle,78,L,Middle
221,Spatial,2314,4,4,44,1200,20,7.5,1,l,l,-1600,0,-1600,-400,=,L,S,0.225579469550217,0.341341027045145,1.50407710172374,1.26634885686894,1.72192831120056,274406.994612449,274407.239518547,274407.239518547,274408.039381583,0.8,274409.579503713,274409.579503713,274411.17948551,1.6,274412.594657489,274413.091211753,0.496554263983853,77,Shorter,Ring,78,L,Middle
221,Spatial,2314,4,4,45,800,5,5,1,l,l,-1600,-400,-1600,-800,=,L,S,0.335185036579153,0.287894677508388,1.73851104278014,1.7788736120445,1.93871733211961,274414.961381194,274415.309545488,274415.309545488,274417.709549485,2.4,274419.479748356,274419.479748356,274421.079645462,1.6,274423.01134196,274423.507148755,0.495806794962846,77,Shorter,Ring,66,=,Index
221,Spatial,2314,4,4,46,1200,6.66666666666667,7.5,1,r,r,0,1600,0,1200,S,=,L,0.272242708962623,0.255595684480348,1.29898964137856,1.86275344301114,1.89903223613754,274425.594766241,274425.879772609,274425.879772609,274428.279869318,2.4,274429.609651737,274429.609651737,274431.20968358,1.6,274433.22810413,274433.723161852,0.495057721913327,66,Shorter,Index,66,S,Index
221,Spatial,2314,4,4,47,1200,3.33333333333333,7.5,1,l,l,-1600,-800,-1600,-400,S,=,L,0.292957738710568,0.227386343329128,1.03375807612205,1.88329956990888,1.73690424048231,274435.794788954,274436.100052374,274436.100052374,274438.499948582,2.4,274439.560154851,274439.560154851,274441.160058694,1.6,274443.194870201,274443.875210526,0.680340325634461,77,Longer,Ring,78,=,Middle
221,Spatial,2314,4,4,48,800,5,5,1,m,m,-800,400,-800,0,L,S,=,0.390062740471321,0.470283347222858,1.01742694678154,1.84771473415126,1.81797867643624,274445.778231392,274446.18040337,274446.18040337,274448.579952791,2.4,274449.63028894,274449.63028894,274451.230135039,1.6,274453.228206466,274453.611273758,0.383067292103078,78,Shorter,Middle,78,S,Middle
221,Spatial,2314,4,4,49,800,3.75,3.33333333333333,1,m,m,-800,400,-800,0,=,L,S,0.340210106174906,0.493619375391117,1.10781169856379,1.66644867357988,1.32643546737756,274456.128264403,274456.48026581,274456.48026581,274459.680184859,3.2,274460.820307758,274460.820307758,274463.220196267,2.4,274465.028327472,274465.37917917,0.350851697672624,77,Shorter,Ring,66,=,Index
221,Spatial,2314,4,4,50,1200,10,5,1,m,m,-800,800,-800,400,L,S,=,0.3603719198289,0.23917177414474,1.31709935931248,1.10518693898251,1.50483866960162,274466.84502978,274467.220341635,274467.220341635,274468.820278841,1.6,274470.160516524,274470.160516524,274472.560270616,2.4,274473.811669564,274474.491258783,0.679589219216723,78,Shorter,Middle,66,L,Index
221,Spatial,2314,4,4,51,1200,10,5,1,r,r,0,1600,0,1200,=,L,S,0.267844377288937,0.27992394833225,1.57863823942334,1.1829288334731,1.51042532527901,274476.145102025,274476.430530889,274476.430530889,274478.030433449,1.6,274479.64077885,274479.64077885,274482.040699118,2.4,274483.378471597,274483.86706953,0.488597932853736,77,Shorter,Ring,78,L,Middle
221,Spatial,2314,4,4,52,1600,5,5,2,l,l,-1600,-400,-1600,0,S,=,L,0.221447923895824,0.203358255196905,1.31643786904985,1.80627163224825,1.27518251964735,274485.545118899,274485.780746436,274485.780746436,274488.180596448,2.4,274489.530888712,274489.530888712,274492.730734297,3.2,274494.678474432,274495.715218149,1.03674371691886,77,Longer,Ring,78,=,Middle
221,Spatial,2314,4,4,53,800,5,5,1,l,l,-1600,-1200,-1600,-800,S,=,L,0.350624463463499,0.325639359381811,1.13770599481199,1.71808866540801,1.42243305819861,274497.145237403,274497.511070517,274497.511070517,274498.310938686,0.8,274499.481107595,274499.481107595,274501.080932521,1.6,274502.945247291,274503.931344167,0.986096876906231,77,Longer,Ring,77,L,Ring
221,Spatial,2314,4,4,54,1600,5,5,2,m,m,-800,400,-800,800,L,S,=,0.47789130754239,0.274631931416389,1.42719480284483,1.44215778498678,1.7214542762517,274505.495277471,274505.991059199,274505.991059199,274508.390943858,2.4,274509.850983502,274509.850983502,274513.05090993,3.2,274514.628618568,274515.059098174,0.430479605623987,66,Longer,Index,66,L,Index
221,Spatial,2314,4,4,55,1600,10,20,2,r,r,0,1600,0,1600,=,L,S,0.212013775317375,0.31141192455341,1.25807915066853,1.5794606567787,1.83256058134448,274516.9286937,274517.151366604,274517.151366604,274518.75097948,1.6,274520.031164922,274520.031164922,274520.831097894,0.8,274522.56199213,274523.011233529,0.44924139912473,66,Equals to,Index,77,S,Ring
221,Spatial,2314,4,4,56,800,1.25,3.33333333333333,1,m,m,-800,-400,-800,0,L,S,=,0.367288603599048,0.40923338471707,1.4667437588407,1.305078191459,1.76301160716273,274524.995395206,274525.381484089,274525.381484089,274528.58138421,3.2,274530.081288977,274530.081288977,274532.481127119,2.4,274533.928719685,274534.475244981,0.546525295590982,66,Longer,Index,77,=,Ring
221,Spatial,2314,4,4,57,1200,5,5,1,l,l,-1600,-800,-1600,-400,S,=,L,0.263044316570131,0.207610459425002,1.90044649488185,1.51352127247849,1.17999217962505,274536.395434536,274536.671578103,274536.671578103,274538.271396291,1.6,274540.191434152,274540.191434152,274542.591530862,2.4,274544.262188145,274544.675295282,0.413107137195766,77,Longer,Ring,77,L,Ring
221,Spatial,2314,4,4,58,1200,20,7.5,1,l,l,-1600,0,-1600,-400,S,=,L,0.449146102909308,0.243200607373594,1.91836703017265,1.56411452774473,1.84112578989438,274545.995533792,274546.461507546,274546.461507546,274547.261528417,0.8,274549.211830433,274549.211830433,274550.81170412,1.6,274552.528868024,274552.899306618,0.370438594312873,66,Shorter,Index,77,L,Ring
221,Spatial,2314,4,4,59,1600,6.66666666666667,5,2,l,l,-1600,0,-1600,0,=,L,S,0.204264225680526,0.449789661633684,1.96504124889021,1.51954246791452,1.70792454436581,274554.912249554,274555.131508951,274555.131508951,274557.53152578,2.4,274559.521985169,274559.521985169,274562.721862513,3.2,274564.378982765,274564.739339584,0.360356818826403,66,Equals to,Index,66,=,Index
221,Spatial,2314,4,4,60,1200,5,5,1,m,m,-800,0,-800,400,=,L,S,0.204192376212422,0.390780719933706,1.11145188189099,1.23244555902961,1.91471779994808,274566.595668658,274566.811833769,274566.811833769,274568.411738575,1.6,274569.55185602,274569.55185602,274571.951900438,2.4,274573.328975878,274573.755320023,0.426344144972973,78,Longer,Middle,78,L,Middle
221,Spatial,2314,4,4,61,400,2.5,5,2,r,r,0,400,0,400,=,L,S,0.404906439702788,0.260357884903765,1.17241610148849,1.02373944982357,1.50881959374088,274575.845690633,274576.262126116,274576.262126116,274577.86197831,1.6,274579.062158261,274579.062158261,274579.862008465,0.8,274581.02909004,274581.62730745,0.598217409336939,66,Equals to,Index,77,S,Ring
221,Spatial,2314,4,4,62,1600,20,20,2,m,m,-800,800,-800,800,S,=,L,0.30148954333834,0.394315631153617,1.61914437730904,1.93380192337762,1.05327941564007,274583.279119693,274583.592046756,274583.592046756,274584.392055116,0.8,274586.042190572,274586.042190572,274586.842045909,0.8,274588.929090532,274589.275226438,0.346135905885603,78,Equals to,Middle,78,=,Middle
221,Spatial,2314,4,4,63,1600,5,5,2,l,l,-1600,0,-1600,0,=,L,S,0.304071981006567,0.256759362709374,1.96608085568998,1.41759793844031,1.23893483850655,274590.479165825,274590.802252371,274590.802252371,274594.002122337,3.2,274595.992416192,274595.992416192,274599.192236113,3.2,274600.762480648,274601.2431613,0.480680652370211,66,Equals to,Index,66,=,Index
221,Spatial,2314,4,4,64,1200,5,5,1,r,r,0,1600,0,1200,S,=,L,0.435668090066095,0.487598784351712,1.19305072158809,1.43354742849105,1.89005098255113,274602.629258889,274603.082570261,274603.082570261,274606.282483535,3.2,274607.502628608,274607.502628608,274609.902577106,2.4,274611.479250196,274611.875153744,0.395903548866045,66,Shorter,Index,78,=,Middle
221,Spatial,2314,4,4,65,400,5,5,2,l,l,-1600,-800,-1600,-1200,S,=,L,0.433858622103762,0.284994965733412,1.20863150287731,1.06453962456321,1.28808199399577,274613.912642685,274614.362615468,274614.362615468,274615.962398689,1.6,274617.202453386,274617.202453386,274618.002434799,0.8,274619.212676086,274620.451342653,1.23866656713653,66,Shorter,Index,66,S,Index
221,Spatial,2314,4,4,66,1200,5,5,1,m,m,-800,0,-800,400,=,L,S,0.344797470138908,0.215343467551054,1.61132961981999,1.40663171726526,1.38965785791663,274621.896038607,274622.252944117,274622.252944117,274623.852814275,1.6,274625.492737957,274625.492737957,274627.892613312,2.4,274629.44600226,274629.883365317,0.437363057571929,78,Longer,Middle,78,L,Middle
221,Spatial,2314,4,4,67,400,1.66666666666667,1.25,2,r,r,0,400,0,400,S,=,L,0.455753446921186,0.398850155375548,1.09533160273599,1.44850939361273,1.07363375351894,274631.412760419,274631.882925773,274631.882925773,274634.282808828,2.4,274635.402879989,274635.402879989,274638.602900411,3.2,274640.196135574,274640.603321072,0.407185497810133,78,Equals to,Middle,77,L,Ring
221,Spatial,2314,4,4,68,800,5,5,1,l,l,-1600,-400,-1600,-800,S,=,L,0.434534767540581,0.213874679396941,1.74084945817359,1.76218209805849,1.32392135524845,274641.829495898,274642.283005525,274642.283005525,274644.682901412,2.4,274646.4530589,274646.4530589,274648.052873239,1.6,274649.962808443,274650.299239121,0.336430678202305,66,Shorter,Index,66,S,Index
221,Spatial,2314,4,4,69,400,1.25,1.25,2,r,r,0,400,0,400,=,L,S,0.331246500857853,0.264320283776299,1.01012557362454,1.92172528290278,1.38824653959422,274651.779565786,274652.12307442,274652.12307442,274655.323087464,3.2,274656.373398912,274656.373398912,274659.573274331,3.2,274661.646281956,274662.059180941,0.412898984272033,66,Equals to,Index,66,=,Index
221,Spatial,2314,4,4,70,1200,10,7.5,1,r,r,0,800,0,1200,=,L,S,0.439340793613135,0.260220432462347,1.67140498049371,1.40476398533386,1.59928500992554,274663.596308016,274664.053487299,274664.053487299,274664.853351298,0.8,274666.553236432,274666.553236432,274668.153276936,1.6,274669.696239493,274670.099364619,0.403125126322266,78,Longer,Middle,78,L,Middle
221,Spatial,2314,4,4,71,1600,6.66666666666667,5,2,m,m,-800,800,-800,800,L,S,=,0.38697994251285,0.334356487765497,1.10374244928383,1.14733541327956,1.62574484308052,274671.846348598,274672.2434272,274672.2434272,274674.643516851,2.4,274675.783284944,274675.783284944,274678.983334238,3.2,274680.279738637,274680.923344324,0.643605686607771,77,Equals to,Ring,66,L,Index
221,Spatial,2314,4,4,72,400,3.33333333333333,1.25,2,l,l,-1600,-800,-1600,-1200,=,L,S,0.388867751571934,0.40291363122491,1.16569493335306,1.48178294483645,1.45864663791884,274682.713045676,274683.113490777,274683.113490777,274685.513492849,2.4,274686.713692369,274686.713692369,274689.91357645,3.2,274691.546406278,274691.947377218,0.400970939779654,77,Shorter,Ring,78,L,Middle
221,Spatial,2314,4,4,73,800,1.66666666666667,5,1,m,m,-800,-400,-800,0,L,S,=,0.443998205365898,0.256417356164435,1.36800410043973,1.87073593768809,1.287898365492,274694.379842268,274694.843954727,274694.843954727,274697.243830083,2.4,274698.643951262,274698.643951262,274700.243802173,1.6,274702.263138934,274703.07531761,0.812178676540498,66,Longer,Index,78,S,Middle
221,Spatial,2314,4,4,74,1600,15,20,2,m,m,-800,400,-800,800,S,=,L,0.359354878218461,0.259935458870438,1.88923359657969,1.92790171042531,1.63853580442218,274704.513237901,274704.883901974,274704.883901974,274705.683769182,0.8,274707.603973218,274707.603973218,274708.403925438,0.8,274710.479866456,274711.307421501,0.827555044845212,77,Longer,Ring,78,=,Middle
221,Spatial,2314,4,4,75,1600,10,20,2,l,l,-1600,0,-1600,0,L,S,=,0.485582499504914,0.373439190271029,1.78266533954765,1.06813494354361,1.46192909071471,274713.096615345,274713.593977344,274713.593977344,274715.193867392,1.6,274717.014296503,274717.014296503,274717.814152803,0.8,274719.029983297,274719.475345712,0.445362415688578,77,Equals to,Ring,78,S,Middle
221,Spatial,2314,4,4,76,1200,20,7.5,1,l,l,-1600,0,-1600,-400,S,=,L,0.268183703013073,0.276650697219946,1.37838537273436,1.50366497386538,1.26106875956546,274721.08001255,274721.364126125,274721.364126125,274722.164113312,0.8,274723.574194758,274723.574194758,274725.174159232,1.6,274726.829964269,274727.227217112,0.397252842783928,66,Shorter,Index,77,L,Ring
221,Spatial,2314,4,4,77,800,1.25,3.33333333333333,1,m,m,-800,-400,-800,0,S,=,L,0.421391740159507,0.449742530088394,1.62317838437172,1.14720157768175,1.54292027373149,274728.646686146,274729.08432569,274729.08432569,274732.284182182,3.2,274733.934533217,274733.934533217,274736.3343396,2.4,274737.63009561,274738.267403036,0.637307425553445,77,Longer,Ring,66,S,Index
221,Spatial,2314,4,4,78,800,2.5,3.33333333333333,1,m,m,-800,-400,-800,0,L,S,=,0.38646098602991,0.290729744875073,1.2392155935447,1.27158867990318,1.59231493219549,274739.946776263,274740.344300873,274740.344300873,274741.944384685,1.6,274743.214549552,274743.214549552,274745.614584025,2.4,274747.030096375,274747.459230537,0.429134161386173,66,Longer,Index,66,L,Index
221,Spatial,2314,4,4,79,800,7.5,3.33333333333333,1,l,l,-1600,-400,-1600,-800,S,=,L,0.474498530223742,0.248818214993947,1.35970423336585,1.25362052377796,1.17579186502979,274749.196858641,274749.684589197,274749.684589197,274751.284496889,1.6,274752.674812751,274752.674812751,274755.074716979,2.4,274756.480222937,274756.851389362,0.371166425291449,66,Shorter,Index,77,L,Ring
221,Spatial,2314,4,4,80,1200,10,7.5,1,l,l,-1600,-800,-1600,-400,L,S,=,0.264099252322463,0.411656478526981,1.00975413361539,1.65893556857273,1.00351952970677,274758.163593061,274758.444861122,274758.444861122,274759.244676038,0.8,274760.284820623,274760.284820623,274761.884655815,1.6,274763.680205159,274763.93949575,0.259290590940509,66,Longer,Index,66,L,Index
221,Spatial,2314,4,4,81,1200,2.5,5,1,l,l,-1600,-800,-1600,-400,S,=,L,0.361652671220004,0.395650112921124,1.23218169957604,1.36186315411515,1.77753646856675,274765.096959245,274765.474853557,274765.474853557,274768.674945518,3.2,274769.945158184,274769.945158184,274772.344685149,2.4,274773.86366868,274774.42756576,0.563897079555318,77,Longer,Ring,78,=,Middle
221,Spatial,2314,4,4,82,1200,10,5,1,r,r,0,1600,0,1200,L,S,=,0.409764216668031,0.435087101900337,1.27809224709787,1.09526535526685,1.85046107292891,274776.363652345,274776.785225476,274776.785225476,274778.384799855,1.6,274779.695278325,274779.695278325,274782.095124167,2.4,274783.347006563,274783.779416756,0.432410193025135,78,Shorter,Middle,66,L,Index
221,Spatial,2314,4,4,83,800,2.5,3.33333333333333,1,l,l,-1600,-1200,-1600,-800,L,S,=,0.335469785221911,0.32163186589417,1.20373886020265,1.19800773997736,1.07829852890937,274785.797103221,274786.145073749,274786.145073749,274787.745105271,1.6,274788.985146494,274788.985146494,274791.385136697,2.4,274792.730397865,274793.075646432,0.345248567173257,66,Longer,Index,66,L,Index
221,Spatial,2314,4,4,84,800,1.66666666666667,5,1,r,r,0,400,0,800,=,L,S,0.480006064628472,0.221012755523881,1.25540425691441,1.8812905004755,1.20206063882079,274794.31377178,274794.805158197,274794.805158197,274797.205142625,2.4,274798.48532069,274798.48532069,274800.08520753,1.6,274802.113784676,274802.587411852,0.473627175262664,78,Longer,Middle,77,S,Ring
221,Spatial,2314,4,4,85,800,3.75,3.33333333333333,1,l,l,-1600,-400,-1600,-800,=,L,S,0.237103630890132,0.401321681921384,1.30540998900828,1.72941297114,1.13608849197532,274803.947208797,274804.195396059,274804.195396059,274807.395515288,3.2,274808.735627858,274808.735627858,274811.135509309,2.4,274813.013916645,274813.499476772,0.485560127184726,77,Shorter,Ring,66,=,Index
221,Spatial,2314,4,4,86,800,3.75,3.33333333333333,1,m,m,-800,400,-800,0,=,L,S,0.286102178203423,0.438985831284595,1.83176501420872,1.46720455429778,1.1385892759927,274814.780621047,274815.085535435,274815.085535435,274818.285453521,3.2,274820.145872547,274820.145872547,274822.545431912,2.4,274824.163948189,274824.699260487,0.535312297695782,77,Shorter,Ring,77,S,Ring
221,Spatial,2314,4,4,87,400,2.5,1.25,2,r,r,0,800,0,400,L,S,=,0.297687213292765,0.202730389256928,1.88848033318616,1.85579093321687,1.91863735905386,274825.980684823,274826.295698383,274826.295698383,274829.495781041,3.2,274831.416037048,274831.416037048,274834.615899956,3.2,274836.614081119,274836.979480531,0.365399412519764,78,Shorter,Middle,66,L,Index
221,Spatial,2314,4,4,88,800,5,5,1,l,l,-1600,-1200,-1600,-800,L,S,=,0.237765477092123,0.355740690122886,1.45088952279857,1.78129669451118,1.70466198936819,274839.047369968,274839.295887336,274839.295887336,274840.095844047,0.8,274841.575998628,274841.575998628,274843.175831895,1.6,274845.11407019,274845.467416445,0.353346255258657,66,Longer,Index,66,L,Index
221,Spatial,2314,4,4,89,400,5,5,2,r,r,0,400,0,400,L,S,=,0.442616636605004,0.417877371324061,1.57777434141784,1.85546004009941,1.96592605034838,274847.3141638,274847.776267076,274847.776267076,274848.576102523,0.8,274850.186026711,274850.186026711,274850.985894239,0.8,274852.980852351,274853.411254574,0.430402223253623,77,Equals to,Ring,77,=,Ring
221,Spatial,2314,4,4,90,1200,2.5,5,1,l,l,-1600,-800,-1600,-400,=,L,S,0.469954478867913,0.325493477888566,1.25171359488004,1.75173876205509,1.36481455535411,274855.530887794,274856.016067973,274856.016067973,274859.216056315,3.2,274860.496416916,274860.496416916,274862.896030818,2.4,274864.797577045,274865.427407604,0.629830558726098,78,Longer,Middle,66,=,Index
221,Spatial,2314,4,4,91,400,5,5,2,m,m,-800,0,-800,-400,=,L,S,0.259530554984652,0.23134778925494,1.75725916186348,1.67010819018897,1.74385509781708,274866.947575153,274867.226633207,274867.226633207,274868.826115195,1.6,274870.616221124,274870.616221124,274871.416215048,0.8,274873.230938096,274873.659362643,0.428424547018949,77,Shorter,Ring,77,S,Ring
221,Spatial,2314,4,4,92,1200,10,5,1,r,r,0,1600,0,1200,S,=,L,0.444131000512129,0.498285355117192,1.49164458499894,1.80440930327666,1.04951916690785,274875.547678061,274876.006457061,274876.006457061,274877.606301876,1.6,274879.116754297,274879.116754297,274881.516617462,2.4,274883.463925797,274883.94742213,0.483496332890354,66,Shorter,Index,77,L,Ring
221,Spatial,2314,4,4,93,800,3.75,3.33333333333333,1,r,r,0,1200,0,800,=,L,S,0.315032830676606,0.306897244338758,1.54234344288343,1.93029131863062,1.24404540910536,274885.147730678,274885.476729929,274885.476729929,274888.67657391,3.2,274890.256862395,274890.256862395,274892.65679357,2.4,274894.731127248,274895.795442428,1.0643151801778,77,Shorter,Ring,77,S,Ring
221,Spatial,2314,4,4,94,1600,7.5,20,2,r,r,0,1200,0,1600,S,=,L,0.461078212251287,0.475635448423706,1.57667151866972,1.18763959934586,1.82952670297346,274897.181150243,274897.656722717,274897.656722717,274899.25657042,1.6,274900.856909681,274900.856909681,274901.656766301,0.8,274902.981113735,274903.31550347,0.334389734838624,77,Longer,Ring,66,S,Index
221,Spatial,2314,4,4,95,800,15,5,1,l,l,-1600,-400,-1600,-800,=,L,S,0.356207890240357,0.239350640297621,1.81870281078783,1.38126794986151,1.5276597054676,274905.281200737,274905.656779178,274905.656779178,274906.45674808,0.8,274908.296888559,274908.296888559,274909.896790156,1.6,274911.43123072,274911.835481745,0.404251025116537,77,Shorter,Ring,78,L,Middle
221,Spatial,2314,4,4,96,1200,6.66666666666667,7.5,1,r,r,0,1600,0,1200,L,S,=,0.302654809396558,0.313108744341019,1.76470909798702,1.04400648106702,1.05289426241716,274913.514543566,274913.837135756,274913.837135756,274916.237018811,2.4,274918.027241512,274918.027241512,274919.627136052,1.6,274920.831230154,274921.275433676,0.444203521998134,78,Shorter,Middle,78,S,Middle
