Subject,Task,SequenceOrder,ListNo,RunNo,TrialNo,Aud_Probe_Dist,Aud_Standard_Vel,Aud_Probe_Vel,Main_Control,Aud_Std_StartCode,Aud_Probe_StartCode,Aud_Std_StartPt,Aud_Std_EndPt,Aud_Probe_StartPt,Aud_Probe_EndPt,RespIndex,RespMiddle,RespRing,ISI_Cross_Std,ISI_Cross_Probe,ISI_Std_Probe,ISI_Probe_Response,ITI,TrialOnset,StdOnset,StdOnsetByStop,StdOffset,StdDur,ProbeOnset,ProbeOnsetByStop,ProbeOffset,ProbeDur,RespWinStart,RespTime,RT,CorrectKC,CorrectResponse,CorrectFinger,SubjRespKC,SubjResponse,SubjRespFinger
230,Temporal,1243,1,0,1,800,3.75,3.33333333333333,1,r,r,0,1200,0,800,L,S,=,0.417926980728639,0.420289578454777,1.54445568509488,1.93225652413139,1.57273361150618,1220685.27159175,1220685.70191315,1220685.70191315,1220688.89981404,3.2,1220690.47983626,1220690.47983626,1220692.87986014,2.4,1220694.95502922,1220695.6529482,0.697918987832963,78,Shorter,Middle,66,L,Index
230,Temporal,1243,1,0,2,1200,20,7.5,1,l,l,-1600,0,-1600,-400,S,=,L,0.26285399131621,0.301908370864342,1.07408439674977,1.60965912867579,1.87243844782566,1220697.43837833,1220697.71994127,1220697.71994127,1220698.51995701,0.8,1220699.62998097,1220699.62998097,1220701.22998009,1.6,1220702.98840974,1220705.78894779,2.80053804931231,77,Longer,Ring,77,L,Ring
230,Temporal,1243,1,0,3,400,2.5,5,2,l,l,-1600,-1200,-1600,-1200,L,S,=,0.390967846062577,0.394536866296722,1.26875958798036,1.746150882806,1.56283283851711,1220707.83845754,1220708.24008188,1220708.24008188,1220709.84011179,1.6,1220711.14013757,1220711.14013757,1220711.94014304,0.8,1220713.83847034,1220714.7649659,0.92649556347169,78,Shorter,Middle,78,S,Middle
230,Temporal,1243,1,0,4,1600,5,5,2,r,r,0,1600,0,1600,S,=,L,0.489831978454317,0.480394461826007,1.69044049664801,1.87326991538133,1.95917340963076,1220716.50517348,1220717.01021494,1220717.01021494,1220720.21025974,3.2,1220721.9303044,1220721.9303044,1220725.13033252,3.2,1220727.13853264,1220727.86103075,0.722498112125322,78,Equals to,Middle,77,L,Ring
230,Temporal,1243,1,0,5,1600,7.5,20,2,r,r,0,1200,0,1600,S,=,L,0.417075844718883,0.31738352639764,1.45621373394716,1.65410790386625,1.07569320803309,1220729.98858961,1220730.42042017,1220730.42042017,1220732.02044014,1.6,1220733.51045843,1220733.51045843,1220734.31047449,0.8,1220736.10526032,1220736.99696168,0.891701361397281,66,Shorter,Index,66,S,Index
230,Temporal,1243,1,0,6,1600,7.5,20,2,m,m,-800,400,-800,800,=,L,S,0.379434814320055,0.483505286083142,1.58751534225511,1.37496922699631,1.33326985423901,1220738.23861828,1220738.63053467,1220738.63053467,1220740.23055401,1.6,1220741.84058374,1220741.84058374,1220742.64059916,0.8,1220744.1553292,1220745.31701766,1.16168845864013,77,Shorter,Ring,77,S,Ring
230,Temporal,1243,1,0,7,1200,10,7.5,1,m,m,-800,0,-800,400,S,=,L,0.277056397795207,0.313670911949126,1.26166343850144,1.17033204105635,1.75508157684812,1220746.82197918,1220747.11066579,1220747.11066579,1220747.91066998,0.8,1220749.20068994,1220749.20068994,1220750.80071312,1.6,1220752.12204501,1220752.96498894,0.842943924479187,77,Longer,Ring,77,L,Ring
230,Temporal,1243,1,0,8,1200,10,5,1,l,l,-1600,0,-1600,-400,S,=,L,0.29114359931266,0.488349949587437,1.2694328137484,1.34939579220751,1.82042587385445,1220754.88873017,1220755.19078196,1220755.19078196,1220756.79082086,1.6,1220758.09082322,1220758.09082322,1220760.49086058,2.4,1220761.98873214,1220762.74899348,0.760261338204145,77,Longer,Ring,77,L,Ring
230,Temporal,1243,1,0,9,800,7.5,3.33333333333333,1,r,r,0,1200,0,800,L,S,=,0.27878671209915,0.280150925747349,1.77643217396443,1.53997950657393,1.97771824724226,1220764.73878198,1220765.03092015,1220765.03092015,1220766.63093884,1.6,1220768.43097231,1220768.43097231,1220770.83099812,2.4,1220772.50548219,1220773.25298811,0.74750591814518,66,Longer,Index,66,L,Index
230,Temporal,1243,1,0,10,800,7.5,3.33333333333333,1,l,l,-1600,-400,-1600,-800,L,S,=,0.245700656051959,0.229321243059704,1.01497317891387,1.01076601504254,1.79985408059638,1220775.4055151,1220775.67109113,1220775.67109113,1220777.27110115,1.6,1220778.32112003,1220778.32112003,1220780.72116092,2.4,1220781.88888376,1220782.67703307,0.788149311672896,66,Longer,Index,66,L,Index
230,Temporal,1243,1,0,11,1200,20,7.5,1,l,l,-1600,0,-1600,-400,L,S,=,0.296040359532508,0.426461873251862,1.65445138946759,1.48115154080182,1.90366792165756,1220784.67223611,1220784.98121571,1220784.98121571,1220785.78122182,0.8,1220787.46125058,1220787.46125058,1220789.0612728,1.6,1220790.68879849,1220791.42903311,0.740234621800482,66,Longer,Index,66,L,Index
230,Temporal,1243,1,0,12,400,2.5,5,2,l,l,-1600,-1200,-1600,-1200,=,L,S,0.289077723286603,0.466657773984163,1.02417937432473,1.90691318619088,1.77433428840093,1220793.50563075,1220793.81134423,1220793.81134423,1220795.41136773,1.6,1220796.4613834,1220796.4613834,1220797.26138951,0.8,1220799.3056449,1220800.02102377,0.715378870721906,77,Shorter,Ring,77,S,Ring
230,Temporal,1243,1,0,13,800,3.75,3.33333333333333,1,m,m,-800,400,-800,0,L,S,=,0.288024721812063,0.380566979282901,1.6442746860995,1.33494504381903,1.21550192938745,1220801.97233855,1220802.2714682,1220802.2714682,1220805.47151653,3.2,1220807.1515392,1220807.1515392,1220809.55158329,2.4,1220811.03903924,1220811.51701406,0.477974824607372,78,Shorter,Middle,78,S,Middle
230,Temporal,1243,1,0,14,1600,5,5,2,l,l,-1600,-400,-1600,0,=,L,S,0.297739435720944,0.398932752906871,1.33370266381119,1.99760420323617,1.69898366782205,1220812.905754,1220813.22162709,1220813.22162709,1220815.62165643,2.4,1220816.99168412,1220816.99168412,1220820.19172155,3.2,1220822.33911675,NaN,NaN,78,Longer,Middle,999,Missed,Missed
230,Temporal,1243,1,0,15,800,15,5,1,m,m,-800,400,-800,0,S,=,L,0.206308884210539,0.351744550646964,1.33156512705707,1.54070634434646,1.43960091600698,1220827.15582452,1220827.38183665,1220827.38183665,1220828.18184533,0.8,1220829.53187101,1220829.53187101,1220831.13188521,1.6,1220832.80583995,1220833.5091188,0.703278849367052,77,Longer,Ring,77,L,Ring
230,Temporal,1243,1,0,16,1200,10,7.5,1,m,m,-800,0,-800,400,S,=,L,0.207434780744372,0.381251948467307,1.38815949383813,1.58796926237802,1.54678222196318,1220835.12254935,1220835.34194522,1220835.34194522,1220836.14202416,0.8,1220837.56199305,1220837.56199305,1220839.16200179,1.6,1220840.88924273,1220841.49307837,0.60383563907817,77,Longer,Ring,77,L,Ring
230,Temporal,1243,1,0,17,1200,20,7.5,1,r,r,0,1600,0,1200,S,=,L,0.230939380577723,0.359902624632625,1.43930681606217,1.92817102356501,1.5836429502103,1220843.2057686,1220843.45206794,1220843.45206794,1220844.25209844,0.8,1220845.7321016,1220845.7321016,1220847.33212029,1.6,1220849.40595556,1220850.07704866,0.671093094861135,77,Longer,Ring,77,L,Ring
230,Temporal,1243,1,0,18,800,7.5,3.33333333333333,1,m,m,-800,400,-800,0,L,S,=,0.361345532229279,0.248733941426469,1.82213538695878,1.67349554269504,1.51442544169108,1220851.83931862,1220852.21219807,1220852.21219807,1220853.81221869,1.6,1220855.66225495,1220855.66225495,1220858.06227082,2.4,1220859.87227807,1220860.47704211,0.60476404055953,66,Longer,Index,66,L,Index
230,Temporal,1243,1,0,19,1200,6.66666666666667,7.5,1,m,m,-800,800,-800,400,L,S,=,0.284914448727871,0.387525284892123,1.43947333009419,1.55295560022199,1.74792206104529,1220862.17272213,1220862.47235483,1220862.47235483,1220864.87237647,2.4,1220866.34240269,1220866.34240269,1220867.94242073,1.6,1220869.6394017,1220870.45308076,0.813679062994197,78,Shorter,Middle,78,S,Middle
230,Temporal,1243,1,0,20,800,1.25,3.33333333333333,1,l,l,-1600,-1200,-1600,-800,=,L,S,0.351533191702351,0.366072949612658,1.42772870867624,1.88080004715312,1.84236610624834,1220872.37276807,1220872.74249623,1220872.74249623,1220875.94253558,3.2,1220877.40256624,1220877.40256624,1220879.80259815,2.4,1220881.83949104,1220882.50104742,0.661556384060532,77,Shorter,Ring,77,S,Ring
