Subject,Task,SequenceOrder,ListNo,RunNo,TrialNo,Aud_Probe_Dist,Aud_Standard_Vel,Aud_Probe_Vel,Main_Control,Aud_Std_StartCode,Aud_Probe_StartCode,Aud_Std_StartPt,Aud_Std_EndPt,Aud_Probe_StartPt,Aud_Probe_EndPt,RespIndex,RespMiddle,RespRing,ISI_Cross_Std,ISI_Cross_Probe,ISI_Std_Probe,ISI_Probe_Response,ITI,TrialOnset,StdOnset,StdOnsetByStop,StdOffset,StdDur,ProbeOnset,ProbeOnsetByStop,ProbeOffset,ProbeDur,RespWinStart,RespTime,RT,CorrectKC,CorrectResponse,CorrectFinger,SubjRespKC,SubjResponse,SubjRespFinger
231,Spatial,2314,2,1,1,1200,2.5,5,1,l,l,-1600,-800,-1600,-400,L,S,=,0.307641709827225,0.429454378085727,1.19874429362862,1.56498971929096,1.3732513577842,1226883.89136638,1226884.2112732,1226884.2112732,1226887.40933673,3.2,1226888.63935898,1226888.63935898,1226891.03938672,2.4,1226892.75807616,1226894.73598207,1.97790590836667,66,Longer,Index,66,L,Index
231,Spatial,2314,2,1,2,800,3.75,3.33333333333333,1,l,l,-1600,-400,-1600,-800,L,S,=,0.230217918552799,0.428672138232084,1.69615101321372,1.34595971529129,1.40637130692172,1226896.29143336,1226896.53949038,1226896.53949038,1226899.7395092,3.2,1226901.46954172,1226901.46954172,1226903.869581,2.4,1226905.37482973,1226905.7279232,0.353093463229015,78,Shorter,Middle,78,S,Middle
231,Spatial,2314,2,1,3,800,7.5,3.33333333333333,1,r,r,0,1200,0,800,L,S,=,0.273469806207126,0.276542352210009,1.26716958516348,1.53874984893493,1.73070071549231,1226907.30817391,1226907.59962956,1226907.59962956,1226909.19964793,1.6,1226910.48967269,1226910.48967269,1226912.88970588,2.4,1226914.5748563,1226915.09592466,0.521068361122161,78,Shorter,Middle,66,L,Index
231,Spatial,2314,2,1,4,1200,20,7.5,1,r,r,0,1600,0,1200,=,L,S,0.301393303112584,0.220426943518011,1.37112773722854,1.57382139981038,1.95492701309123,1226916.99151671,1226917.30976748,1226917.30976748,1226918.10977841,0.8,1226919.50980303,1226919.50980303,1226921.10982621,1.6,1226922.82492282,1226923.6159796,0.791056789690629,77,Shorter,Ring,78,L,Middle
231,Spatial,2314,2,1,5,800,1.66666666666667,5,1,l,l,-1600,-1200,-1600,-800,L,S,=,0.427298485482513,0.235161717603566,1.3182611380385,1.25916307836738,1.53066921213535,1226925.74162387,1226926.17989522,1226926.17989522,1226928.57993226,2.4,1226929.92995473,1226929.92995473,1226931.5299731,1.6,1226932.92498582,1226934.02398702,1.09900119854137,66,Longer,Index,78,S,Middle
231,Spatial,2314,2,1,6,1600,20,20,2,l,l,-1600,0,-1600,0,=,L,S,0.259707326563884,0.316530345898205,1.58827521443971,1.61612174559533,1.68647653388485,1226935.72501429,1226936.00004551,1226936.00004551,1226936.80004328,0.8,1226938.41007751,1226938.41007751,1226939.21009806,0.8,1226940.97502454,1226941.44801722,0.472992676775903,66,Equals to,Index,66,=,Index
231,Spatial,2314,2,1,7,1200,10,7.5,1,r,r,0,800,0,1200,L,S,=,0.423657265289874,0.488799673413815,1.79231866603249,1.56844848707878,1.79248248606552,1226943.30836466,1226943.75015859,1226943.75015859,1226944.55016663,0.8,1226946.37019346,1226946.37019346,1226947.97021792,1.6,1226949.69175532,1226950.91996884,1.22821352328174,66,Longer,Index,66,L,Index
231,Spatial,2314,2,1,8,1600,5,5,2,l,l,-1600,0,-1600,0,=,L,S,0.253327022259274,0.469348115246128,1.47512292130802,1.16987236658144,1.28634855025828,1226952.89176291,1226953.16028779,1226953.16028779,1226956.36033388,3.2,1226957.87036059,1226957.87036059,1226961.07040476,3.2,1226962.39180049,1226963.07197549,0.680175004061311,66,Equals to,Index,66,=,Index
231,Spatial,2314,2,1,9,1600,10,20,2,l,l,-1600,0,-1600,0,=,L,S,0.401489423329317,0.398859211847918,1.25111341640495,1.42597540170374,1.79141857690597,1226964.5251792,1226964.9404626,1226964.9404626,1226966.54047969,1.6,1226967.82050024,1226967.82050024,1226968.62051213,0.8,1226970.19184739,1226971.66398669,1.47213929495774,66,Equals to,Index,77,S,Ring
231,Spatial,2314,2,1,10,1200,5,5,1,m,m,-800,800,-800,400,=,L,S,0.400513747276012,0.488101551143601,1.19834423908175,1.61047230790518,1.83890510764989,1226973.64189514,1226974.06060141,1226974.06060141,1226977.26064461,3.2,1226978.49065884,1226978.49065884,1226980.89069973,2.4,1226982.65859817,1226985.57596435,2.91736617567949,77,Shorter,Ring,66,=,Index
231,Spatial,2314,2,1,11,1200,5,5,1,r,r,0,800,0,1200,S,=,L,0.463286545134018,0.307225514804877,1.95162776243784,1.49652619867839,1.3904916680976,1226987.591984,1226988.07079875,1226988.07079875,1226989.67082417,1.6,1226991.66084727,1226991.66084727,1226994.06088206,2.4,1226995.70867566,1226996.12004641,0.411370752379298,77,Longer,Ring,77,L,Ring
231,Spatial,2314,2,1,12,800,1.25,3.33333333333333,1,m,m,-800,-400,-800,0,=,L,S,0.358702109021808,0.292607396868053,1.3842611512,1.69478828152701,1.811425522368,1226997.69202969,1226998.07094311,1226998.07094311,1227001.27098887,3.2,1227002.69101936,1227002.69101936,1227005.09105928,2.4,1227006.94204613,1227007.34400289,0.40195676474832,78,Longer,Middle,78,L,Middle
231,Spatial,2314,2,1,13,1200,2.5,5,1,m,m,-800,0,-800,400,=,L,S,0.386430812399512,0.492539863855707,1.27141670375181,1.75536021058803,1.64031142403374,1227009.34208289,1227009.74111775,1227009.74111775,1227012.94116062,3.2,1227014.24118543,1227014.24118543,1227016.64121606,2.4,1227018.54211523,1227018.88000941,0.337894177762792,78,Longer,Middle,78,L,Middle
231,Spatial,2314,2,1,14,800,3.75,3.33333333333333,1,m,m,-800,400,-800,0,S,=,L,0.459962604733308,0.206206961787488,1.83756442672232,1.14892954581087,1.14244914346748,1227020.70884517,1227021.1812859,1227021.1812859,1227024.38131979,3.2,1227026.24134584,1227026.24134584,1227028.64139603,2.4,1227029.94220845,1227030.35200851,0.409800056833774,66,Shorter,Index,66,S,Index
231,Spatial,2314,2,1,15,1600,6.66666666666667,5,2,l,l,-1600,0,-1600,0,L,S,=,0.263132777274609,0.443716063286758,1.44123320296717,1.1466198472968,1.96058770354973,1227031.6755773,1227031.95143179,1227031.95143179,1227034.35146049,2.4,1227035.81149051,1227035.81149051,1227039.01153756,3.2,1227040.3089405,1227040.66401556,0.35507505806163,77,Equals to,Ring,66,L,Index
231,Spatial,2314,2,1,16,1200,10,5,1,l,l,-1600,0,-1600,-400,=,L,S,0.256405574284159,0.354500318859629,1.39001211869092,1.93644725437372,1.62038918792692,1227042.80894228,1227043.08159887,1227043.08159887,1227044.68162334,1.6,1227046.1016397,1227046.1016397,1227048.50167995,2.4,1227050.57563841,1227051.00807042,0.432432007743046,77,Shorter,Ring,78,L,Middle
231,Spatial,2314,2,1,17,1200,6.66666666666667,7.5,1,m,m,-800,800,-800,400,=,L,S,0.385761527835702,0.412456190043339,1.13592476108242,1.82462745019586,1.75487637590932,1227052.82567285,1227053.22173937,1227053.22173937,1227055.62178218,2.4,1227056.79179326,1227056.79179326,1227058.39181708,1.6,1227060.35862121,1227060.89605336,0.537432158365846,77,Shorter,Ring,77,S,Ring
231,Spatial,2314,2,1,18,400,2.5,1.25,2,r,r,0,800,0,400,=,L,S,0.248241125874697,0.324090984780147,1.19210397602671,1.80170008430017,1.22493295972153,1227062.85908168,1227063.12189002,1227063.12189002,1227066.32193707,3.2,1227067.55194488,1227067.55194488,1227070.75199674,3.2,1227072.69244697,1227073.16005333,0.46760636032559,77,Shorter,Ring,77,S,Ring
231,Spatial,2314,2,1,19,400,5,5,2,l,l,-1600,-1200,-1600,-1200,=,L,S,0.200023095643967,0.408588994167739,1.16470920939167,1.84774408502627,1.00018735369706,1227074.55914422,1227074.77205623,1227074.77205623,1227075.57206202,0.8,1227076.77208702,1227076.77208702,1227077.57208608,0.8,1227079.57580321,1227079.88001871,0.304215503158048,66,Equals to,Index,66,=,Index
231,Spatial,2314,2,1,20,800,5,5,1,r,r,0,400,0,800,=,L,S,0.44652537912962,0.470557290749971,1.33375291566841,1.75694105530782,1.99389558183002,1227081.05917186,1227081.52215648,1227081.52215648,1227082.32218088,0.8,1227083.69218611,1227083.69218611,1227085.29220705,1.6,1227087.19249317,1227087.60009412,0.407600957900286,78,Longer,Middle,78,L,Middle
231,Spatial,2314,2,1,21,800,5,5,1,m,m,-800,400,-800,0,L,S,=,0.324562064341428,0.200118367751723,1.84763526458608,1.51141756546294,1.28999903400847,1227089.77589627,1227090.11227847,1227090.11227847,1227092.51230973,2.4,1227094.39233811,1227094.39233811,1227095.99236321,1.6,1227097.65924967,1227098.0560621,0.396812431514263,78,Shorter,Middle,78,S,Middle
231,Spatial,2314,2,1,22,1600,3.75,5,2,r,r,0,1200,0,1600,=,L,S,0.409422643932349,0.220728623790034,1.92983131635846,1.00747224672893,1.72384845458087,1227099.5259549,1227099.95241826,1227099.95241826,1227103.15246531,3.2,1227105.12249922,1227105.12249922,1227108.32253953,3.2,1227109.47598603,1227111.17605462,1.7000685876701,78,Longer,Middle,66,=,Index
231,Spatial,2314,2,1,23,1200,10,5,1,m,m,-800,800,-800,400,L,S,=,0.27546908488804,0.451946539314691,1.56149119815589,1.49708150588308,1.06350492515551,1227113.09268977,1227113.38261331,1227113.38261331,1227114.98264002,1.6,1227116.57266485,1227116.57266485,1227118.97269066,2.4,1227120.62605077,1227121.44804192,0.821991150733083,78,Shorter,Middle,77,=,Ring
231,Spatial,2314,2,1,24,400,2.5,5,2,r,r,0,400,0,400,=,L,S,0.368103677336313,0.452771076189783,1.38363058341701,1.09940383919595,1.74177991349216,1227122.67607772,1227123.06276169,1227123.06276169,1227124.66277557,1.6,1227126.07281723,1227126.07281723,1227126.87280635,0.8,1227128.1260791,1227129.27205755,1.14597845613025,66,Equals to,Index,77,S,Ring
231,Spatial,2314,2,1,25,1200,5,5,1,r,r,0,1600,0,1200,S,=,L,0.426718470077334,0.210378032105979,1.79456270786896,1.97266654246336,1.64571291353459,1227158.05963024,1227158.50328337,1227158.50328337,1227161.70331566,3.2,1227163.53334189,1227163.53334189,1227165.93338342,2.4,1227168.04299743,1227168.70410556,0.661108127562329,66,Shorter,Index,78,=,Middle
231,Spatial,2314,2,1,26,400,3.33333333333333,1.25,2,r,r,0,800,0,400,L,S,=,0.29803634848418,0.206103726294923,1.33268142817897,1.73105426357009,1.68495373133816,1227170.52635449,1227170.84346647,1227170.84346647,1227173.24348105,2.4,1227174.60350613,1227174.60350613,1227177.80355542,3.2,1227179.69305489,1227180.05612081,0.363065919140354,78,Shorter,Middle,77,=,Ring
231,Spatial,2314,2,1,27,1200,3.33333333333333,7.5,1,r,r,0,800,0,1200,S,=,L,0.421923152199941,0.317747016648311,1.84978195855532,1.88163603348356,1.21295702861919,1227181.90975631,1227182.34361724,1227182.34361724,1227184.74365268,2.4,1227186.62368106,1227186.62368106,1227188.22369975,1.6,1227190.25977646,1227190.64812462,0.388348163105547,77,Longer,Ring,66,S,Index
231,Spatial,2314,2,1,28,1600,7.5,20,2,l,l,-1600,-400,-1600,0,S,=,L,0.373992750703488,0.344664763757906,1.5959598702645,1.09815603804,1.6193490571052,1227192.02648689,1227192.41376609,1227192.41376609,1227194.01378735,1.6,1227195.63380461,1227195.63380461,1227196.43381458,0.8,1227197.67607611,1227198.44009693,0.764020818751305,77,Longer,Ring,78,=,Middle
231,Spatial,2314,2,1,29,800,1.66666666666667,5,1,r,r,0,400,0,800,=,L,S,0.23888857738712,0.350566950838545,1.07151742832633,1.29899141652199,1.44399829417956,1227200.259859,1227200.51388235,1227200.51388235,1227202.91390431,2.4,1227204.01393336,1227204.01393336,1227205.61394755,1.6,1227207.05987904,1227207.47209117,0.412212138529867,78,Longer,Middle,77,S,Ring
231,Spatial,2314,2,1,30,800,3.75,3.33333333333333,1,r,r,0,1200,0,800,L,S,=,0.408591664133647,0.238473990635667,1.70840393018488,1.38779965155558,1.72878338537958,1227209.09325663,1227209.51401484,1227209.51401484,1227212.71404841,3.2,1227214.45408386,1227214.45408386,1227216.85411866,2.4,1227218.3932973,1227220.38414647,1.99084916664287,78,Shorter,Middle,77,=,Ring
231,Spatial,2314,2,1,31,1600,15,20,2,m,m,-800,400,-800,800,S,=,L,0.282279224219984,0.383294857582227,1.9577241970963,1.09612159863684,1.29097920441229,1227222.27665016,1227222.57421465,1227222.57421465,1227223.37420921,0.8,1227225.36424899,1227225.36424899,1227226.16424035,0.8,1227227.40999789,1227227.80011331,0.390115414047614,77,Longer,Ring,78,=,Middle
231,Spatial,2314,2,1,32,800,5,5,1,l,l,-1600,-1200,-1600,-800,=,L,S,0.47912207376275,0.314143636290527,1.38265595640051,1.47754067034759,1.52403805245808,1227229.26002898,1227229.75430464,1227229.75430464,1227230.55431428,0.8,1227231.97433642,1227231.97433642,1227233.57435479,1.6,1227235.21004586,1227236.95209782,1.7420519660227,78,Longer,Middle,66,=,Index
231,Spatial,2314,2,1,33,1600,10,20,2,r,r,0,1600,0,1600,=,L,S,0.393625027503975,0.447652180304248,1.57566516404279,1.55236389436618,1.73299095218795,1227238.64342038,1227239.05444361,1227239.05444361,1227240.65446038,1.6,1227242.26450454,1227242.26450454,1227243.06449109,0.8,1227244.76011849,1227245.87212537,1.11200688709505,66,Equals to,Index,77,S,Ring
231,Spatial,2314,2,1,34,800,15,5,1,m,m,-800,400,-800,0,S,=,L,0.480137772500674,0.431695157642917,1.52337461123443,1.16734285593963,1.4757838866613,1227247.77680185,1227248.27457549,1227248.27457549,1227249.07457871,0.8,1227250.63460854,1227250.63460854,1227252.23462499,1.6,1227253.54347318,1227254.12811363,0.584640441695228,66,Shorter,Index,77,L,Ring
231,Spatial,2314,2,1,35,400,5,5,2,r,r,0,400,0,400,=,L,S,0.342380414131337,0.368140190327579,1.08160611491921,1.9635961879154,1.42075255939665,1227255.77684877,1227256.13469933,1227256.13469933,1227256.93471378,0.8,1227258.04471913,1227258.04471913,1227258.844723,0.8,1227260.96018519,1227261.31214563,0.351960439933464,66,Equals to,Index,66,=,Index
231,Spatial,2314,2,1,36,800,2.5,3.33333333333333,1,m,m,-800,-400,-800,0,S,=,L,0.452301011928172,0.293391608662105,1.96153023298186,1.58856302011272,1.04187241996786,1227262.90986293,1227263.37478766,1227263.37478766,1227264.97481117,1.6,1227266.9748465,1227266.9748465,1227269.37487295,2.4,1227271.11024976,1227271.63213777,0.521888010436669,77,Longer,Ring,77,L,Ring
231,Spatial,2314,2,1,37,800,2.5,3.33333333333333,1,l,l,-1600,-1200,-1600,-800,L,S,=,0.264313268242421,0.427857081440999,1.23037273448174,1.10361434642408,1.73117977060926,1227272.84357742,1227273.12493411,1227273.12493411,1227274.72495312,1.6,1227275.98497069,1227275.98497069,1227278.38499843,2.4,1227279.62696382,1227280.32013778,0.693173957522959,66,Longer,Index,66,L,Index
231,Spatial,2314,2,1,38,800,15,5,1,m,m,-800,400,-800,0,S,=,L,0.26274487081298,0.498385447579461,1.3345317983267,1.10503862169095,1.27212469298016,1227282.2100574,1227282.48506661,1227282.48506661,1227283.28506984,0.8,1227284.64510102,1227284.64510102,1227286.24512195,1.6,1227287.49365935,1227287.87217542,0.378516071708873,66,Shorter,Index,78,=,Middle
231,Spatial,2314,2,1,39,1600,3.75,5,2,m,m,-800,400,-800,800,L,S,=,0.233448062786611,0.250206309991422,1.14246782577403,1.44389832295364,1.48529270669315,1227289.32705041,1227289.57518668,1227289.57518668,1227292.7752148,3.2,1227293.95524741,1227293.95524741,1227297.15528452,3.2,1227298.76040481,1227299.09611104,0.335706229088828,66,Longer,Index,66,L,Index
231,Spatial,2314,2,1,40,400,1.66666666666667,1.25,2,m,m,-800,-400,-800,-400,=,L,S,0.358146394902198,0.276666958572397,1.73584938088571,1.99818860194284,1.70178427791299,1227300.76037999,1227301.13534222,1227301.13534222,1227303.53536867,2.4,1227305.29540068,1227305.29540068,1227308.49544644,3.2,1227310.64380887,1227311.03216555,0.388356677955016,66,Equals to,Index,78,L,Middle
231,Spatial,2314,2,1,41,800,5,5,1,r,r,0,1200,0,800,=,L,S,0.207455896377978,0.312536537455302,1.97202421363664,1.22505427864817,1.96957116065248,1227312.91049679,1227313.13551737,1227313.13551737,1227315.53554094,2.4,1227317.53558237,1227317.53558237,1227319.13559689,1.6,1227320.49386264,1227320.91212523,0.418262595543638,77,Shorter,Ring,77,S,Ring
231,Spatial,2314,2,1,42,400,3.33333333333333,1.25,2,m,m,-800,0,-800,-400,L,S,=,0.225563555444241,0.389634239353609,1.77633817841815,1.31167203391297,1.65668357782876,1227323.06057431,1227323.30566057,1227323.30566057,1227325.70569184,2.4,1227327.51572343,1227327.51572343,1227330.71576535,3.2,1227332.17727271,1227332.54419723,0.36692452756688,78,Shorter,Middle,78,S,Middle
231,Spatial,2314,2,1,43,1200,3.33333333333333,7.5,1,m,m,-800,0,-800,400,=,L,S,0.468470590915772,0.281393439522032,1.54202820753892,1.66046264073343,1.32126079388296,1227334.37707984,1227334.85582922,1227334.85582922,1227337.25586209,2.4,1227338.83589489,1227338.83589489,1227340.43590428,1.6,1227342.24398159,1227343.11215661,0.868175014154986,78,Longer,Middle,66,=,Index
231,Spatial,2314,2,1,44,400,10,5,2,m,m,-800,0,-800,-400,=,L,S,0.367976362993524,0.220259053763374,1.90117147264874,1.39559190549373,1.2199549990241,1227344.61069054,1227344.99597581,1227344.99597581,1227345.79598738,0.8,1227347.72603459,1227347.72603459,1227348.52604231,0.8,1227350.07735791,1227350.42418547,0.346827555214986,77,Shorter,Ring,77,S,Ring
231,Spatial,2314,2,1,45,1200,2.5,5,1,r,r,0,800,0,1200,S,=,L,0.495788524245315,0.347142648503919,1.46337040291843,1.0088574213942,1.23225829372677,1227351.81073056,1227352.32607803,1227352.32607803,1227355.52612828,3.2,1227357.02615752,1227357.02615752,1227359.42619296,2.4,1227360.57742513,1227361.04819026,0.470765125006437,77,Longer,Ring,78,=,Middle
231,Spatial,2314,2,1,46,400,1.25,1.25,2,l,l,-1600,-1200,-1600,-1200,=,L,S,0.400871343202619,0.312787096746252,1.41559847198027,1.68692012227671,1.94203431337837,1227362.46074115,1227362.87623031,1227362.87623031,1227366.07628089,3.2,1227367.52630285,1227367.52630285,1227370.72634155,3.2,1227372.56083522,1227373.41620519,0.85536997159943,66,Equals to,Index,78,L,Middle
231,Spatial,2314,2,1,47,1200,10,7.5,1,m,m,-800,0,-800,400,L,S,=,0.45716905383895,0.459053308389103,1.58774303338725,1.12844668614646,1.12798360607127,1227375.5275306,1227375.99642365,1227375.99642365,1227376.7964333,0.8,1227378.41646115,1227378.41646115,1227380.01647855,1.6,1227381.29421677,1227381.73615723,0.441940457560122,66,Longer,Index,66,L,Index
231,Spatial,2314,2,1,48,1200,5,5,1,r,r,0,800,0,1200,L,S,=,0.264227077565867,0.356134249756416,1.35061970764422,1.27892663796168,1.38831987254052,1227383.04424141,1227383.326531,1227383.326531,1227384.92656156,1.6,1227386.30657101,1227386.30657101,1227388.70660805,2.4,1227390.14428398,1227390.46417217,0.319888194091618,66,Longer,Index,66,L,Index
231,Spatial,2314,2,1,49,800,1.66666666666667,5,1,l,l,-1600,-1200,-1600,-800,S,=,L,0.375963819089076,0.484967788650664,1.91804929610187,1.55261073654051,1.81713199550036,1227405.41103967,1227405.80686583,1227405.80686583,1227408.20689388,2.4,1227410.1569229,1227410.1569229,1227411.75694255,1.6,1227413.46105975,1227414.28017706,0.81911730626598,77,Longer,Ring,66,S,Index
231,Spatial,2314,2,1,50,1200,5,5,1,r,r,0,1600,0,1200,=,L,S,0.446002009428496,0.391611963359637,1.59248255457846,1.11579485856415,1.76555091176157,1227416.27777127,1227416.73702271,1227416.73702271,1227419.93705564,3.2,1227421.55708862,1227421.55708862,1227423.95712214,2.4,1227425.22778654,1227425.6801965,0.452409962192178,77,Shorter,Ring,77,S,Ring
231,Spatial,2314,2,1,51,1200,10,5,1,m,m,-800,800,-800,400,L,S,=,0.240207489890801,0.353187110217835,1.99229083113866,1.59560945533944,1.97750896792791,1227427.62782846,1227427.88717159,1227427.88717159,1227429.48719638,1.6,1227431.49721988,1227431.49721988,1227433.89733263,2.4,1227435.64453263,1227435.9442356,0.29970297170803,78,Shorter,Middle,66,L,Index
231,Spatial,2314,2,1,52,800,2.5,3.33333333333333,1,r,r,0,400,0,800,S,=,L,0.314834633931946,0.484092077718001,1.89964889312623,1.58964167549466,1.19911450167081,1227438.1112266,1227438.43734697,1227438.43734697,1227440.03735732,1.6,1227441.95738395,1227441.95738395,1227444.35742645,2.4,1227446.09459205,1227447.20021167,1.10561961983331,77,Longer,Ring,66,S,Index
231,Spatial,2314,2,1,53,800,7.5,3.33333333333333,1,m,m,-800,400,-800,0,L,S,=,0.272953779375873,0.457834756019578,1.79602365157623,1.48556730757689,1.02089031750269,1227448.57795399,1227448.86748236,1227448.86748236,1227450.46750233,1.6,1227452.28751889,1227452.28751889,1227454.68756363,2.4,1227456.3279769,1227457.04022699,0.712250089040026,78,Shorter,Middle,78,S,Middle
231,Spatial,2314,2,1,54,800,1.66666666666667,5,1,l,l,-1600,-1200,-1600,-800,L,S,=,0.486008848656757,0.232334806362336,1.08903944117449,1.00045577310013,1.47666397757358,1227458.22801384,1227458.72762513,1227458.72762513,1227461.12765254,2.4,1227462.24767687,1227462.24767687,1227463.84768914,1.6,1227464.99471185,1227467.09622236,2.10151051287539,66,Longer,Index,78,S,Middle
231,Spatial,2314,2,1,55,800,7.5,3.33333333333333,1,m,m,-800,400,-800,0,=,L,S,0.346648223722084,0.415699159479084,1.53711254993801,1.76984752063974,1.88185345251073,1227468.74464201,1227469.10777537,1227469.10777537,1227470.7077886,1.6,1227472.27781944,1227472.27781944,1227474.67785231,2.4,1227476.5947617,1227476.98425054,0.389488838845864,77,Shorter,Ring,66,=,Index
231,Spatial,2314,2,1,56,1200,5,5,1,m,m,-800,800,-800,400,S,=,L,0.235500724967635,0.346261837994954,1.0979335573716,1.93060170415657,1.59921638325736,1227479.04478971,1227479.29792732,1227479.29792732,1227482.49796282,3.2,1227483.62798109,1227483.62798109,1227486.02802037,2.4,1227488.11150634,1227488.73624641,0.624740069964901,66,Shorter,Index,78,=,Middle
231,Spatial,2314,2,1,57,800,1.25,3.33333333333333,1,l,l,-1600,-1200,-1600,-800,L,S,=,0.319001397784277,0.455368508575907,1.22550118051112,1.76581740798338,1.90289915326711,1227490.51152564,1227490.8480934,1227490.8480934,1227494.04813339,3.2,1227495.29815541,1227495.29815541,1227497.69819533,2.4,1227499.6115589,1227500.19233084,0.580771938432008,66,Longer,Index,77,=,Ring
231,Spatial,2314,2,1,58,1200,6.66666666666667,7.5,1,l,l,-1600,0,-1600,-400,=,L,S,0.215740572608863,0.453325101999766,1.85997842611129,1.10414542236836,1.75690120205647,1227502.27824993,1227502.50826382,1227502.50826382,1227504.90829348,2.4,1227506.80831714,1227506.80831714,1227508.40833743,1.6,1227509.66163649,1227510.35223468,0.690598187036812,77,Shorter,Ring,77,S,Ring
231,Spatial,2314,2,1,59,1200,20,7.5,1,m,m,-800,800,-800,400,L,S,=,0.214991570861029,0.348550868380526,1.12139103196917,1.75397517389673,1.60610511294607,1227512.27830325,1227512.50840722,1227512.50840722,1227513.3084098,0.8,1227514.46843591,1227514.46843591,1227516.06844979,1.6,1227517.96167088,1227518.84823524,0.886564356507733,78,Shorter,Middle,77,=,Ring
231,Spatial,2314,2,1,60,400,5,5,2,r,r,0,800,0,400,S,=,L,0.235459584026955,0.46138805057249,1.34865633181298,1.07219482026638,1.35558434556804,1227520.62835922,1227520.87852084,1227520.87852084,1227522.47854466,1.6,1227523.85857047,1227523.85857047,1227524.65857563,0.8,1227525.87837492,1227526.6803338,0.801958882249892,66,Shorter,Index,77,L,Ring
231,Spatial,2314,2,1,61,400,2.5,1.25,2,l,l,-1600,-800,-1600,-1200,L,S,=,0.401328822021101,0.477916732020792,1.74881969753709,1.51669716057137,1.92522263885915,1227528.22842057,1227528.64863882,1227528.64863882,1227531.84867432,3.2,1227533.62871156,1227533.62871156,1227536.82876213,3.2,1227538.49511537,1227538.82425078,0.329135414678603,78,Shorter,Middle,77,=,Ring
231,Spatial,2314,2,1,62,1200,10,5,1,l,l,-1600,0,-1600,-400,S,=,L,0.478981895785429,0.456963616266076,1.33981386898562,1.01127988787292,1.54536682685835,1227540.92843995,1227541.41882033,1227541.41882033,1227543.01884351,1.6,1227544.37886249,1227544.37886249,1227546.77889312,2.4,1227547.94517198,1227548.42428363,0.479111657245085,66,Shorter,Index,66,S,Index
231,Spatial,2314,2,1,63,400,5,5,2,r,r,0,800,0,400,S,=,L,0.429056803210717,0.494470191800335,1.13020361378407,1.39865872583634,1.45684739772565,1227550.12852746,1227550.56895959,1227550.56895959,1227552.16897635,1.6,1227553.31900209,1227553.31900209,1227554.11900725,0.8,1227555.66187218,1227555.99226033,0.330388147151098,66,Shorter,Index,77,L,Ring
231,Spatial,2314,2,1,64,1200,20,7.5,1,r,r,0,1600,0,1200,L,S,=,0.467970966824126,0.298589154354925,1.01896492455248,1.7130862072296,1.18117232692222,1227557.61190417,1227558.09907008,1227558.09907008,1227558.89906978,0.8,1227559.94910726,1227559.94910726,1227561.54945798,1.6,1227563.41151956,1227563.74428122,0.332761663943529,78,Shorter,Middle,66,L,Index
231,Spatial,2314,2,1,65,800,5,5,1,m,m,-800,400,-800,0,L,S,=,0.307827607015943,0.49980569193521,1.549813369679,1.90182806930603,1.40666790222519,1227565.11196361,1227565.43916656,1227565.43916656,1227567.83920809,2.4,1227569.42922619,1227569.42922619,1227571.02925963,1.6,1227573.07864332,1227573.47227852,0.393635206855834,78,Shorter,Middle,77,=,Ring
231,Spatial,2314,2,1,66,800,1.25,3.33333333333333,1,l,l,-1600,-1200,-1600,-800,S,=,L,0.41497950084157,0.355120202801714,1.16589829968923,1.20535934436174,1.05268552519994,1227575.06201783,1227575.48932077,1227575.48932077,1227578.6893614,3.2,1227579.88937293,1227579.88937293,1227582.28941607,2.4,1227583.64538589,1227584.06431602,0.41893013427034,77,Longer,Ring,77,L,Ring
231,Spatial,2314,2,1,67,800,1.25,3.33333333333333,1,l,l,-1600,-1200,-1600,-800,L,S,=,0.253055642387182,0.349598206610315,1.56580763852921,1.96810722311403,1.22179995891637,1227585.31204779,1227585.57946714,1227585.57946714,1227588.77950938,3.2,1227590.37953297,1227590.37953297,1227592.77956712,2.4,1227594.89545186,1227595.28027426,0.384822400519624,66,Longer,Index,77,=,Ring
231,Spatial,2314,2,1,68,400,1.66666666666667,1.25,2,r,r,0,400,0,400,S,=,L,0.439415947456299,0.338684455736754,1.0975564418415,1.98880615101566,1.89920923632726,1227596.69546222,1227597.14963235,1227597.14963235,1227599.54965688,2.4,1227600.67968221,1227600.67968221,1227603.87973054,3.2,1227606.01218177,1227606.68829707,0.676115300972015,78,Equals to,Middle,77,L,Ring
231,Spatial,2314,2,1,69,800,3.75,3.33333333333333,1,r,r,0,1200,0,800,S,=,L,0.256164196967166,0.493510921207798,1.91840506466295,1.52838316946744,1.16696518375692,1227608.76220489,1227609.02980055,1227609.02980055,1227612.2298476,3.2,1227614.1798811,1227614.1798811,1227616.57992616,2.4,1227618.26223688,1227618.61629463,0.354057748103514,66,Shorter,Index,66,S,Index
231,Spatial,2314,2,1,70,400,1.25,1.25,2,m,m,-800,-400,-800,-400,L,S,=,0.394232488748101,0.474656174605001,1.81321776362408,1.85088434259239,1.3927488518843,1227619.97891935,1227620.38996289,1227620.38996289,1227623.59002309,3.2,1227625.44003947,1227625.44003947,1227628.64008972,3.2,1227630.64561884,1227631.27231484,0.626696000806987,77,Equals to,Ring,77,=,Ring
231,Spatial,2314,2,1,71,800,15,5,1,m,m,-800,400,-800,0,S,=,L,0.287390286683461,0.466744987849851,1.03675862862914,1.59732791969356,1.98796198235134,1227632.82900603,1227633.13015356,1227633.13015356,1227633.93017058,0.8,1227635.00017511,1227635.00017511,1227636.60019733,1.6,1227638.34567119,1227639.81628366,1.47061247145757,66,Shorter,Index,77,L,Ring
231,Spatial,2314,2,1,72,400,10,5,2,l,l,-1600,-800,-1600,-1200,L,S,=,0.298474650674023,0.280550097980335,1.24363150709715,1.21411586080709,1.55812951825725,1227641.97907756,1227642.29028581,1227642.29028581,1227643.09029385,0.8,1227644.37031312,1227644.37031312,1227645.17031506,0.8,1227646.5290687,1227647.74433223,1.21526352642104,78,Shorter,Middle,66,L,Index
231,Spatial,2314,2,1,73,1200,5,5,1,r,r,0,800,0,1200,S,=,L,0.458604609696099,0.355355842380412,1.78381132958889,1.28915763506707,1.1333780249036,1227672.8125689,1227673.29075161,1227673.29075161,1227674.89075651,1.6,1227676.71078494,1227676.71078494,1227679.11081781,2.4,1227680.54591738,1227680.97633314,0.430415766080841,77,Longer,Ring,77,L,Ring
231,Spatial,2314,2,1,74,800,7.5,3.33333333333333,1,l,l,-1600,-400,-1600,-800,L,S,=,0.233013824525346,0.468039685109654,1.170038201842,1.45255973961395,1.07791926085855,1227682.27928718,1227682.53086401,1227682.53086401,1227684.1308888,1.6,1227685.33091187,1227685.33091187,1227687.73093993,2.4,1227689.32932427,1227689.96834581,0.639021540526301,78,Shorter,Middle,66,L,Index
231,Spatial,2314,2,1,75,1200,6.66666666666667,7.5,1,r,r,0,1600,0,1200,S,=,L,0.336229406756602,0.243855547093156,1.48386835120733,1.00227629544982,1.70188189363226,1227691.22932991,1227691.58099801,1227691.58099801,1227693.98103826,2.4,1227695.49106818,1227695.49106818,1227697.09107821,1.6,1227698.24600585,1227698.6003713,0.354365443810821,66,Shorter,Index,77,L,Ring
231,Spatial,2314,2,1,76,1200,10,7.5,1,r,r,0,800,0,1200,=,L,S,0.472943510444027,0.447989663510285,1.61557096086549,1.9817084267919,1.06440779212432,1227700.47939962,1227700.97114091,1227700.97114091,1227701.77114125,0.8,1227703.41117529,1227703.41117529,1227705.01118821,1.6,1227707.14609321,1227707.68034471,0.534251501318067,78,Longer,Middle,78,L,Middle
231,Spatial,2314,2,1,77,1200,3.33333333333333,7.5,1,m,m,-800,0,-800,400,S,=,L,0.204276223268318,0.335703723808968,1.28981860741923,1.23190072963793,1.06948273147943,1227708.92945561,1227709.15125432,1227709.15125432,1227711.55128302,2.4,1227712.87131274,1227712.87131274,1227714.47132565,1.6,1227715.84611605,1227716.2563591,0.41024305508472,77,Longer,Ring,78,=,Middle
231,Spatial,2314,2,1,78,1600,5,5,2,l,l,-1600,-400,-1600,0,L,S,=,0.423184357442391,0.487040524476447,1.24234749299343,1.04851198097086,1.89150723839918,1227717.51281595,1227717.95137725,1227717.95137725,1227720.35140916,2.4,1227721.62146464,1227721.62146464,1227724.82148121,3.2,1227726.01285761,1227726.64035512,0.627497509121895,66,Longer,Index,66,L,Index
231,Spatial,2314,2,1,79,800,15,5,1,r,r,0,1200,0,800,S,=,L,0.450444465221906,0.412493155589944,1.41510933076413,1.21051837032248,1.81462228638613,1227728.71287336,1227729.1815496,1227729.1815496,1227729.98155282,0.8,1227731.42157666,1227731.42157666,1227733.02159503,1.6,1227734.37956522,1227734.99240244,0.612837221706286,66,Shorter,Index,77,L,Ring
231,Spatial,2314,2,1,80,1200,10,7.5,1,l,l,-1600,-800,-1600,-400,L,S,=,0.244221118903015,0.379602212334144,1.09919441142192,1.40392301211164,1.42888800320287,1227736.96288689,1227737.22165917,1227737.22165917,1227738.02166913,0.8,1227739.1416864,1227739.1416864,1227740.74171888,1.6,1227742.29628123,1227742.68834872,0.392067492939532,66,Longer,Index,66,L,Index
231,Spatial,2314,2,1,81,800,5,5,1,r,r,0,400,0,800,L,S,=,0.239664375679818,0.35989901025342,1.57347345723683,1.17375244153537,1.81826246115313,1227744.27963009,1227744.53178086,1227744.53178086,1227745.33177767,0.8,1227746.93179966,1227746.93179966,1227748.53183567,1.6,1227749.84632426,1227750.28043177,0.434107510838658,66,Longer,Index,66,L,Index
231,Spatial,2314,2,1,82,1200,2.5,5,1,m,m,-800,0,-800,400,S,=,L,0.452898355333826,0.41946495325167,1.50424932982593,1.28430864064305,1.91289615221362,1227752.27969213,1227752.75190023,1227752.75190023,1227755.95193027,3.2,1227757.48195612,1227757.48195612,1227759.88200054,2.4,1227761.31306505,1227761.69636364,0.383298590313643,77,Longer,Ring,77,L,Ring
231,Spatial,2314,2,1,83,1200,5,5,1,m,m,-800,0,-800,400,=,L,S,0.241301273529727,0.353424876513108,1.01863106793376,1.22426755985619,1.22457528667271,1227763.79642729,1227764.05204818,1227764.05204818,1227765.65208067,1.6,1227766.69208089,1227766.69208089,1227769.09211568,2.4,1227770.46310343,1227770.88036678,0.417263345094398,78,Longer,Middle,78,L,Middle
231,Spatial,2314,2,1,84,1600,5,5,2,l,l,-1600,-400,-1600,0,S,=,L,0.211064874718516,0.361186585481023,1.1487553265543,1.29066987435508,1.38020223589905,1227772.29646871,1227772.5221754,1227772.5221754,1227774.9222009,2.4,1227776.09222031,1227776.09222031,1227779.29226993,3.2,1227780.72981914,1227781.12836963,0.398550487589091,77,Longer,Ring,77,L,Ring
231,Spatial,2314,2,1,85,1600,5,5,2,r,r,0,1600,0,1600,S,=,L,0.298505288112168,0.404288873021191,1.92964119748761,1.00414366936827,1.18920224003241,1227782.69653609,1227783.01232934,1227783.01232934,1227786.2123703,3.2,1227788.17239936,1227788.17239936,1227791.37244544,3.2,1227792.51323203,1227792.92044203,0.407209996599704,78,Equals to,Middle,77,L,Ring
231,Spatial,2314,2,1,86,1600,15,20,2,l,l,-1600,-400,-1600,0,=,L,S,0.243556809187736,0.261129976043297,1.82214867491492,1.5670479732766,1.01980060006613,1227794.27993236,1227794.5424902,1227794.5424902,1227795.34251011,0.8,1227797.20252396,1227797.20252396,1227798.00253649,0.8,1227799.71327527,1227800.05638772,0.343112441943958,78,Longer,Middle,66,=,Index
231,Spatial,2314,2,1,87,1600,7.5,20,2,l,l,-1600,-400,-1600,0,S,=,L,0.234070364769217,0.288876638241729,1.89689226522784,1.99659123893126,1.4437361864044,1227801.2466292,1227801.49261092,1227801.49261092,1227803.09262063,1.6,1227805.02264345,1227805.02264345,1227805.82264989,0.8,1227807.96330751,NaN,NaN,77,Longer,Ring,999,Missed,Missed
231,Spatial,2314,2,1,88,1600,20,20,2,m,m,-800,800,-800,800,S,=,L,0.222983230368864,0.298337168570652,1.53043561433754,1.70623941392284,1.39808794627579,1227812.51336914,1227812.75277313,1227812.75277313,1227813.55276256,0.8,1227815.1127879,1227815.1127879,1227815.91279722,0.8,1227817.76334617,1227818.08041452,0.317068343050778,78,Equals to,Middle,78,=,Middle
231,Spatial,2314,2,1,89,1600,6.66666666666667,5,2,m,m,-800,800,-800,800,=,L,S,0.219703001469775,0.388781093526728,1.29871877920113,1.1331235466399,1.05716927180883,1227819.66340443,1227819.9028601,1227819.9028601,1227822.30288816,2.4,1227823.622906,1227823.622906,1227826.82295305,3.2,1227828.11342619,1227828.82437493,0.710948739433661,66,Equals to,Index,66,=,Index
231,Spatial,2314,2,1,90,800,5,5,1,m,m,-800,400,-800,0,S,=,L,0.356142642158048,0.2881774847614,1.25744512783744,1.44492139309868,1.50071001255702,1227830.0634488,1227830.43301165,1227830.43301165,1227832.83303843,2.4,1227834.12306159,1227834.12306159,1227835.72308509,1.6,1227837.31347183,1227837.6884023,0.374930466292426,66,Shorter,Index,66,S,Index
231,Spatial,2314,2,1,91,1200,3.33333333333333,7.5,1,l,l,-1600,-800,-1600,-400,L,S,=,0.397984691616984,0.439245996662532,1.1938519399202,1.24538393300296,1.42520212051686,1227839.36352479,1227839.77314182,1227839.77314182,1227842.17318079,2.4,1227843.39319722,1227843.39319722,1227844.99327654,1.6,1227846.39686141,1227846.77641854,0.379557124804705,66,Longer,Index,78,S,Middle
231,Spatial,2314,2,1,92,800,2.5,3.33333333333333,1,m,m,-800,-400,-800,0,=,L,S,0.340771973538516,0.29455285776969,1.33137107796056,1.91982419692757,1.75887573245748,1227848.36348685,1227848.72327826,1227848.72327826,1227850.32329374,1.6,1227851.69331662,1227851.69331662,1227854.09334692,2.4,1227856.16357574,1227856.57643849,0.412862754892558,78,Longer,Middle,78,L,Middle
231,Spatial,2314,2,1,93,800,5,5,1,l,l,-1600,-1200,-1600,-800,L,S,=,0.403489048601713,0.422415166732861,1.18945621278038,1.63037937975334,1.15696825398528,1227858.49694308,1227858.91342508,1227858.91342508,1227859.71343761,0.8,1227860.93345532,1227860.93345532,1227862.53347177,1.6,1227864.31362164,1227864.65639041,0.342768766451627,66,Longer,Index,77,=,Ring
231,Spatial,2314,2,1,94,400,2.5,5,2,r,r,0,400,0,400,=,L,S,0.493170744021448,0.369231292581474,1.21342071484631,1.03354220789234,1.72812639613635,1227865.98033908,1227866.49353226,1227866.49353226,1227868.09354614,1.6,1227869.34357554,1227869.34357554,1227870.14357748,0.8,1227871.33036046,1227872.86440206,1.53404160053469,66,Equals to,Index,66,=,Index
231,Spatial,2314,2,1,95,1200,20,7.5,1,l,l,-1600,0,-1600,-400,S,=,L,0.431288223330548,0.296923067715213,1.62220528182564,1.65504228517105,1.82328486136494,1227874.76370977,1227875.21366221,1227875.21366221,1227876.01366769,0.8,1227877.66369375,1227877.66369375,1227879.26374324,1.6,1227881.06371753,1227883.53647938,2.47276184591465,66,Shorter,Index,78,=,Middle
231,Spatial,2314,2,1,96,1200,6.66666666666667,7.5,1,l,l,-1600,0,-1600,-400,S,=,L,0.362676139325774,0.418761062526256,1.46596709520469,1.82752142784544,1.30873756249437,1227885.53042327,1227885.90383309,1227885.90383309,1227888.30384351,2.4,1227889.79386917,1227889.79386917,1227891.39388914,1.6,1227893.3804874,1227893.77640089,0.395913493819535,66,Shorter,Index,66,S,Index
