Subject,Task,SequenceOrder,ListNo,RunNo,TrialNo,Aud_Probe_Dist,Aud_Standard_Vel,Aud_Probe_Vel,Main_Control,Aud_Std_StartCode,Aud_Probe_StartCode,Aud_Std_StartPt,Aud_Std_EndPt,Aud_Probe_StartPt,Aud_Probe_EndPt,RespIndex,RespMiddle,RespRing,ISI_Cross_Std,ISI_Cross_Probe,ISI_Std_Probe,ISI_Probe_Response,ITI,TrialOnset,StdOnset,StdOnsetByStop,StdOffset,StdDur,ProbeOnset,ProbeOnsetByStop,ProbeOffset,ProbeDur,RespWinStart,RespTime,RT,CorrectKC,CorrectResponse,CorrectFinger,SubjRespKC,SubjResponse,SubjRespFinger
208,Temporal,1243,1,0,1,1200,2.5,5,1,r,r,0,800,0,1200,L,S,=,0.375536335425199,0.331588003082957,1.76882378585824,1.02388561123436,1.43840815396535,856173.970522801,856174.357312916,856174.357312916,856177.56298825,3.2,856179.373352367,856179.373352367,856181.773150675,2.4,856182.937266236,NaN,NaN,78,Shorter,Middle,999,Missed,Missed
208,Temporal,1243,1,0,2,800,3.75,3.33333333333333,1,r,r,0,1200,0,800,L,S,=,0.301369789940188,0.465242944951877,1.69032834573617,1.34025248643052,1.40657817846997,856187.503993502,856187.823515639,856187.823515639,856191.023408199,3.2,856192.743220539,856192.743220539,856195.143217104,2.4,856196.620676834,NaN,NaN,78,Shorter,Middle,999,Missed,Missed
208,Temporal,1243,1,0,3,400,5,5,2,m,m,-800,0,-800,-400,L,S,=,0.416617970886659,0.320996059249578,1.05184236948855,1.19038989937296,1.64540305485569,856201.120738909,856201.553645252,856201.553645252,856203.153568096,1.6,856204.233464474,856204.233464474,856205.033344715,0.8,856206.370738829,856208.940340801,2.56960197153967,78,Shorter,Middle,66,L,Index
208,Temporal,1243,1,0,4,800,1.25,3.33333333333333,1,r,r,0,400,0,800,=,L,S,0.292140552691446,0.372703591341309,1.41364581375477,1.02076857285157,1.04966722207077,856210.737444858,856211.04384235,856211.04384235,856214.243676845,3.2,856215.683923525,856215.683923525,856218.083715418,2.4,856219.254082123,NaN,NaN,77,Shorter,Ring,999,Missed,Missed
208,Temporal,1243,1,0,5,1200,3.33333333333333,7.5,1,l,l,-1600,-800,-1600,-400,S,=,L,0.337440782298157,0.257367524707936,1.84459736338252,1.73260724006663,1.02232575115492,856223.387513558,856223.743701421,856223.743701421,856226.143796793,2.4,856228.013982434,856228.013982434,856229.613725629,1.6,856231.504201381,856232.86853476,1.36433337850031,66,Shorter,Index,66,S,Index
208,Temporal,1243,1,0,6,1600,5,5,2,r,r,0,1600,0,1600,=,L,S,0.350513172567397,0.284927739620445,1.20724064265237,1.43793727288239,1.32688234033101,856234.037578408,856234.403976111,856234.403976111,856237.603786225,3.2,856238.844287558,856238.844287558,856242.043787457,3.2,856243.620954649,856244.20453524,0.583580591366626,66,Equals to,Index,66,=,Index
208,Temporal,1243,1,0,7,1200,10,7.5,1,r,r,0,800,0,1200,=,L,S,0.375101111192296,0.217530767096698,1.46913901785266,1.60829312788517,1.73592474154929,856245.670991396,856246.064082059,856246.064082059,856246.864140346,0.8,856248.374419033,856248.374419033,856249.973930288,1.6,856251.720999272,856252.252486776,0.531487503671087,78,Longer,Middle,78,L,Middle
208,Temporal,1243,1,0,8,400,5,5,2,m,m,-800,0,-800,-400,S,=,L,0.318519391576893,0.357786132112651,1.17179698355418,1.64082948002213,1.88516431967922,856254.137686871,856254.474256739,856254.474256739,856256.074104836,1.6,856257.274401036,856257.274401036,856258.074192736,0.8,856259.854341203,856260.316477442,0.4621362388134,66,Shorter,Index,66,S,Index
208,Temporal,1243,1,0,9,400,2.5,5,2,l,l,-1600,-1200,-1600,-1200,S,=,L,0.439172597947547,0.479799539951801,1.26705793798209,1.88439349031631,1.50579251092694,856262.354411298,856262.804531227,856262.804531227,856264.404093169,1.6,856265.704629681,856265.704629681,856266.504336689,0.8,856268.537726779,856269.012482721,0.47475594189018,66,Shorter,Index,66,S,Index
208,Temporal,1243,1,0,10,1200,5,5,1,l,l,-1600,0,-1600,-400,L,S,=,0.375681810942207,0.296181568289471,1.27973453100778,1.83700876711987,1.62712093190585,856270.654456992,856271.044565437,856271.044565437,856274.24439095,3.2,856275.544307031,856275.544307031,856277.944338563,2.4,856279.921113221,856280.396664751,0.475551530485973,78,Shorter,Middle,77,=,Ring
208,Temporal,1243,1,0,11,1600,20,20,2,r,r,0,1600,0,1600,S,=,L,0.322089503941521,0.433374368153082,1.99091503893912,1.39285458820236,1.09861051835932,856282.171174414,856282.504609406,856282.504609406,856283.304431262,0.8,856285.324818255,856285.324818255,856286.124681173,0.8,856287.654517259,856288.076286359,0.421769100241363,78,Equals to,Middle,78,=,Middle
208,Temporal,1243,1,0,12,800,1.66666666666667,5,1,m,m,-800,-400,-800,0,=,L,S,0.308894357616228,0.345416519702519,1.70890084891409,1.52219307999872,1.25406798930049,856289.32122563,856289.645006411,856289.645006411,856292.044780018,2.4,856293.774961316,856293.774961316,856295.374786957,1.6,856297.03787547,856297.580531049,0.542655578465201,77,Shorter,Ring,66,=,Index
208,Temporal,1243,1,0,13,1200,3.33333333333333,7.5,1,m,m,-800,0,-800,400,=,L,S,0.289592421079182,0.421461798539587,1.28920935603156,1.85526973090493,1.61745839073311,856298.987944908,856299.294884555,856299.294884555,856301.694709811,2.4,856303.004862038,856303.004862038,856304.604705002,1.6,856306.604625219,856307.004456579,0.399831360206008,77,Shorter,Ring,66,=,Index
208,Temporal,1243,1,0,14,1600,15,20,2,r,r,0,1200,0,1600,=,L,S,0.306540966477817,0.472750878839542,1.08961801659251,1.13128016550671,1.25298875200039,856308.771297153,856309.095078576,856309.095078576,856309.894857444,0.8,856311.004947692,856311.004947692,856311.804800665,0.8,856313.087966434,856313.452528865,0.36456243111752,66,Equals to,Index,66,=,Index
208,Temporal,1243,1,0,15,1200,6.66666666666667,7.5,1,m,m,-800,800,-800,400,=,L,S,0.330707353079087,0.467392897080979,1.33449949810498,1.51347155729221,1.31756986463632,856314.854674837,856315.205232307,856315.205232307,856317.605047618,2.4,856318.9752655,856318.9752655,856320.57508665,1.6,856322.238056559,856322.620529907,0.382473347708583,77,Shorter,Ring,66,=,Index
208,Temporal,1243,1,0,16,400,1.25,1.25,2,l,l,-1600,-1200,-1600,-1200,S,=,L,0.259829906122606,0.49164031246798,1.17677277028275,1.82983936718433,1.31317330182362,856324.088045993,856324.365333603,856324.365333603,856327.565280058,3.2,856328.775091241,856328.775091241,856331.975141315,3.2,856333.954728122,856334.444461019,0.489732897258364,78,Equals to,Middle,77,L,Ring
208,Temporal,1243,1,0,17,800,5,5,1,l,l,-1600,-400,-1600,-800,L,S,=,0.276213099735639,0.289749909541663,1.33001134918997,1.23088841597185,1.19543679175243,856335.904776387,856336.195426999,856336.195426999,856338.595265728,2.4,856339.94544376,856339.94544376,856341.545330675,1.6,856342.921494281,856344.812358827,1.89086454629432,78,Shorter,Middle,78,S,Middle
208,Temporal,1243,1,0,18,400,2.5,5,2,l,l,-1600,-1200,-1600,-1200,S,=,L,0.279676082409921,0.316855387950087,1.19678422515955,1.28937452144633,1.20305613526691,856346.138185718,856346.43579356,856346.43579356,856348.035235201,1.6,856349.265665601,856349.265665601,856350.065474625,0.8,856351.50483304,856352.21225277,0.707419729791582,66,Shorter,Index,66,S,Index
208,Temporal,1243,1,0,19,1600,10,20,2,r,r,0,1600,0,1600,S,=,L,0.460652584449621,0.449229195055658,1.56804077412046,1.66642912954434,1.78995894267887,856353.554871392,856354.035751727,856354.035751727,856355.635526681,1.6,856357.235932723,856357.235932723,856358.035401697,0.8,856359.854916445,856360.244452614,0.389536169590428,66,Shorter,Index,66,S,Index
208,Temporal,1243,1,0,20,400,1.25,1.25,2,r,r,0,400,0,400,L,S,=,0.450557653533449,0.281480549804526,1.26078369600081,1.07183292369159,1.24130753824912,856362.17158504,856362.635698987,856362.635698987,856365.835523537,3.2,856367.135796671,856367.135796671,856370.335618976,3.2,856371.554936194,856371.980477603,0.425541409291327,77,Equals to,Ring,77,=,Ring
