Subject,Task,SequenceOrder,ListNo,RunNo,TrialNo,Aud_Probe_Dist,Aud_Standard_Vel,Aud_Probe_Vel,Main_Control,Aud_Std_StartCode,Aud_Probe_StartCode,Aud_Std_StartPt,Aud_Std_EndPt,Aud_Probe_StartPt,Aud_Probe_EndPt,RespIndex,RespMiddle,RespRing,ISI_Cross_Std,ISI_Cross_Probe,ISI_Std_Probe,ISI_Probe_Response,ITI,TrialOnset,StdOnset,StdOnsetByStop,StdOffset,StdDur,ProbeOnset,ProbeOnsetByStop,ProbeOffset,ProbeDur,RespWinStart,RespTime,RT,CorrectKC,CorrectResponse,CorrectFinger,SubjRespKC,SubjResponse,SubjRespFinger
208,Spatial,1243,1,1,1,800,15,5,1,m,m,-800,400,-800,0,L,S,=,0.488527737189575,0.281071123318699,1.87151118088016,1.74044225423017,1.85002674747627,856681.673208779,856682.172741175,856682.172741175,856682.971819412,0.8,856684.872143104,856684.872143104,856686.472101878,1.6,856688.356570915,856689.236234954,0.879664038657211,78,Shorter,Middle,78,S,Middle
208,Spatial,1243,1,1,2,1600,5,5,2,r,r,0,1600,0,1600,L,S,=,0.255526857629529,0.246044395300626,1.14360582343545,1.93174252626463,1.1898013041415,856691.239991223,856691.512489583,856691.512489583,856694.711958685,3.2,856695.882421595,856695.882421595,856699.082270526,3.2,856701.156652356,856701.532113067,0.375460711540654,77,Equals to,Ring,66,L,Index
208,Spatial,1243,1,1,3,1200,10,7.5,1,m,m,-800,0,-800,400,L,S,=,0.275872958801793,0.342887386998435,1.59108690012645,1.23090409110123,1.56466883724064,856702.856698455,856703.15232727,856703.15232727,856703.952150729,0.8,856705.582575484,856705.582575484,856707.182092834,1.6,856708.556687451,856708.884060607,0.327373155741952,66,Longer,Index,66,L,Index
208,Spatial,1243,1,1,4,800,2.5,3.33333333333333,1,m,m,-800,-400,-800,0,=,L,S,0.457984828113559,0.396405778735492,1.09887134659709,1.15015388881657,1.42455627187582,856710.606734786,856711.082209609,856711.082209609,856712.682203351,1.6,856713.802710676,856713.802710676,856716.202238228,2.4,856717.506730904,856719.076167663,1.56943675864022,78,Longer,Middle,78,L,Middle
208,Spatial,1243,1,1,5,1600,20,20,2,r,r,0,1600,0,1600,S,=,L,0.483846158773984,0.38718200356929,1.97331931305574,1.45383163734138,1.78620581382528,856720.64013892,856721.142744598,856721.142744598,856721.942304679,0.8,856723.942821847,856723.942821847,856724.742555803,0.8,856726.340130162,856727.732291818,1.39216165582184,78,Equals to,Middle,77,L,Ring
208,Spatial,1243,1,1,6,1600,15,20,2,r,r,0,1200,0,1600,L,S,=,0.32447087591655,0.277444155502792,1.15100384633672,1.42728766201787,1.64898872320201,856729.673521881,856730.012846154,856730.012846154,856730.812641062,0.8,856731.992822986,856731.992822986,856732.79269617,0.8,856734.373538467,856734.884211063,0.510672596399672,66,Longer,Index,77,=,Ring
208,Spatial,1243,1,1,7,1200,5,5,1,m,m,-800,800,-800,400,L,S,=,0.335413842966816,0.215948357459845,1.18619898532106,1.58727740743753,1.62782289152483,856736.690191387,856737.042764135,856737.042764135,856740.242798168,3.2,856741.462774278,856741.462774278,856743.862795865,2.4,856745.59021349,856746.068468739,0.478255248512141,78,Shorter,Middle,66,L,Index
208,Spatial,1243,1,1,8,1200,6.66666666666667,7.5,1,l,l,-1600,0,-1600,-400,S,=,L,0.4184936113348,0.224909064470611,1.50943424850001,1.78434396991025,1.63500535132983,856747.840277796,856748.27290642,856748.27290642,856750.672682914,2.4,856752.212931552,856752.212931552,856753.812909894,1.6,856755.740256045,856757.380273702,1.64001765695866,66,Shorter,Index,66,S,Index
208,Spatial,1243,1,1,9,800,5,5,1,m,m,-800,400,-800,0,S,=,L,0.448637797418622,0.457868173620151,1.50434023524303,1.21614528054283,1.03766372617515,856759.15700203,856759.623128687,856759.623128687,856762.022961964,2.4,856763.56320611,856763.56320611,856765.162968553,1.6,856766.523662826,856766.900362795,0.376699969172478,66,Shorter,Index,66,S,Index
208,Spatial,1243,1,1,10,800,3.75,3.33333333333333,1,m,m,-800,400,-800,0,=,L,S,0.472480583247284,0.275454057100737,1.75029414494074,1.03416625313721,1.69812129697272,856768.09036924,856768.573421724,856768.573421724,856771.773053793,3.2,856773.5532882,856773.5532882,856775.953086829,2.4,856777.140402138,856777.53232608,0.391923941671848,77,Shorter,Ring,77,S,Ring
208,Spatial,1243,1,1,11,800,1.25,3.33333333333333,1,r,r,0,400,0,800,L,S,=,0.383872114113098,0.474037937129228,1.504717518444,1.97776615878448,1.95502099867589,856779.390430609,856779.793432766,856779.793432766,856782.993306399,3.2,856784.52364675,856784.52364675,856786.923422924,2.4,856789.057105937,856790.228191489,1.17108555184677,66,Longer,Index,77,=,Ring
208,Spatial,1243,1,1,12,800,1.25,3.33333333333333,1,r,r,0,400,0,800,S,=,L,0.470643019188248,0.347692326319542,1.69526284126237,1.44851626518562,1.15931434153157,856792.323845939,856792.813726691,856792.813726691,856796.013503121,3.2,856797.73372288,856797.73372288,856800.133374903,2.4,856801.740492797,856802.084255398,0.343762601492926,77,Longer,Ring,78,=,Middle
208,Spatial,1243,1,1,13,1200,3.33333333333333,7.5,1,r,r,0,800,0,1200,=,L,S,0.307095861018242,0.2873908064265,1.74468994274221,1.91881727395591,1.34721352868932,856803.390552514,856803.713898929,856803.713898929,856806.113754341,2.4,856807.883670798,856807.883670798,856809.483664539,1.6,856811.557206188,856812.484319045,0.927112857112661,78,Longer,Middle,77,S,Ring
208,Spatial,1243,1,1,14,1200,20,7.5,1,l,l,-1600,0,-1600,-400,L,S,=,0.344810237371294,0.467054055603177,1.03673136060221,1.26022862243137,1.61190601802838,856813.99058639,856814.35402598,856814.35402598,856815.153840457,0.8,856816.224134914,856816.224134914,856817.823645849,1.6,856819.24061422,856819.780263564,0.53964934439864,78,Shorter,Middle,66,L,Index
208,Spatial,1243,1,1,15,1200,10,7.5,1,m,m,-800,0,-800,400,=,L,S,0.442283797479782,0.248709896681378,1.47402644194254,1.38991766087009,1.49090689201755,856821.523973683,856821.98398682,856821.98398682,856822.78376665,0.8,856824.294012936,856824.294012936,856825.893830878,1.6,856827.424023006,856828.228242497,0.804219490499236,78,Longer,Middle,78,L,Middle
208,Spatial,1243,1,1,16,1600,15,20,2,l,l,-1600,-400,-1600,0,=,L,S,0.497179724958507,0.327488942216034,1.70676777697302,1.46089155084948,1.96406955397808,856829.857350645,856830.37420185,856830.37420185,856831.173981039,0.8,856832.914286201,856832.914286201,856833.714113831,0.8,856835.324016285,856835.82032562,0.496309335110709,78,Longer,Middle,66,=,Index
208,Spatial,1243,1,1,17,400,5,5,2,r,r,0,400,0,400,=,L,S,0.252105962461839,0.301720598511848,1.6591073566849,1.30603342127267,1.23298333366378,856837.924116247,856838.194393375,856838.194393375,856838.994174489,0.8,856840.683882142,856840.683882142,856841.483957752,0.8,856842.940756388,856843.396225895,0.455469506559893,66,Equals to,Index,66,=,Index
208,Spatial,1243,1,1,18,1200,3.33333333333333,7.5,1,l,l,-1600,-800,-1600,-400,=,L,S,0.425639644186325,0.404433387146559,1.9512441488957,1.51924007733927,1.95227792433128,856844.77411182,856845.214376443,856845.214376443,856847.61420619,2.4,856849.594587909,856849.594587909,856851.194118092,1.6,856852.857425071,856853.43643199,0.579006919404492,78,Longer,Middle,66,=,Index
208,Spatial,1243,1,1,19,1200,6.66666666666667,7.5,1,m,m,-800,800,-800,400,L,S,=,0.390351024163993,0.359718515305111,1.69953763122121,1.32677044454363,1.08219563292713,856855.540816742,856855.944548723,856855.944548723,856858.344372375,2.4,856860.074561052,856860.074561052,856861.674387334,1.6,856863.157527925,856863.620309516,0.462781591108069,78,Shorter,Middle,77,=,Ring
208,Spatial,1243,1,1,20,400,3.33333333333333,1.25,2,r,r,0,800,0,400,L,S,=,0.35456400278357,0.23114559815718,1.5023906956065,1.65069745626822,1.77759619563009,856864.85752452,856865.224542333,856865.224542333,856867.624413464,2.4,856869.154541765,856869.154541765,856872.354429192,3.2,856874.157579473,856874.636196586,0.478617113083601,78,Shorter,Middle,66,L,Index
208,Spatial,1243,1,1,21,800,15,5,1,r,r,0,1200,0,800,L,S,=,0.342392961851965,0.447432726667293,1.14084809676214,1.94539942665604,1.02542746947918,856876.557590509,856876.91463363,856876.91463363,856877.714522533,0.8,856878.884984802,856878.884984802,856880.484502794,1.6,856882.590966978,856882.971981808,0.381014830200002,78,Shorter,Middle,66,L,Index
208,Spatial,1243,1,1,22,400,5,5,2,m,m,-800,0,-800,-400,=,L,S,0.318264964351555,0.429779631420975,1.86888712460128,1.70905889248311,1.41123486244264,856884.140964504,856884.474963786,856884.474963786,856886.074716285,1.6,856887.974884388,856887.974884388,856888.774679938,0.8,856890.624291309,856892.780091294,2.15579998516478,77,Shorter,Ring,66,=,Index
208,Spatial,1243,1,1,23,1600,5,5,2,l,l,-1600,-400,-1600,0,S,=,L,0.34933845544278,0.207210531198521,1.93928094617867,1.43156770577798,1.51036803089481,856894.341016217,856894.704713089,856894.704713089,856897.104671157,2.4,856899.074913934,856899.074913934,856902.274899527,3.2,856903.85773433,856904.412208564,0.554474233998917,77,Longer,Ring,77,L,Ring
208,Spatial,1243,1,1,24,1600,3.75,5,2,l,l,-1600,-400,-1600,0,S,=,L,0.450533354839049,0.26200179860279,1.96820131317171,1.98282414606379,1.97391070581043,856906.074402611,856906.545170309,856906.545170309,856909.744966629,3.2,856911.745322433,856911.745322433,856914.945117149,3.2,856917.074439503,856917.476238047,0.401798543520272,77,Longer,Ring,77,L,Ring
208,Spatial,1243,1,1,25,800,1.66666666666667,5,1,r,r,0,400,0,800,S,=,L,0.353716932969389,0.282543671139451,1.52436545688084,1.26826560941378,1.41492484074085,856929.807861506,856930.175481143,856930.175481143,856932.575307041,2.4,856934.135628892,856934.135628892,856935.7353692,1.6,856937.157857608,856937.468115023,0.310257414588705,77,Longer,Ring,66,S,Index
208,Spatial,1243,1,1,26,800,7.5,3.33333333333333,1,l,l,-1600,-400,-1600,-800,L,S,=,0.201217638177379,0.25202686673988,1.1442410426042,1.05959221709561,1.83806714706931,856939.041237153,856939.255712403,856939.255712403,856940.85552842,1.6,856942.035805301,856942.035805301,856944.435624462,2.4,856945.640832173,856946.140268043,0.499435869976878,78,Shorter,Middle,66,L,Index
208,Spatial,1243,1,1,27,1600,7.5,20,2,m,m,-800,400,-800,800,S,=,L,0.483417539256631,0.334152108916894,1.65038849977629,1.8920165552532,1.55014549514513,856948.124638802,856948.625869298,856948.625869298,856950.225449204,1.6,856951.905673955,856951.905673955,856952.705450898,0.8,856954.741326935,856955.092266783,0.350939848111011,77,Longer,Ring,66,S,Index
208,Spatial,1243,1,1,28,400,1.66666666666667,1.25,2,m,m,-800,-400,-800,-400,=,L,S,0.240866100846622,0.489748853888873,1.48227214754288,1.71710605454405,1.90499193563426,856956.791346627,856957.046012574,856957.046012574,856959.445526332,2.4,856960.955890031,856960.955890031,856964.15578195,3.2,856966.024652018,856966.500105704,0.475453685969114,66,Equals to,Index,78,L,Middle
208,Spatial,1243,1,1,29,800,2.5,3.33333333333333,1,l,l,-1600,-1200,-1600,-800,S,=,L,0.394948488513825,0.240560712873055,1.23332854447903,1.19307869913593,1.26116283253435,856968.558076523,856968.965969625,856968.965969625,856970.565867447,1.6,856971.826017893,856971.826017893,856974.225817806,2.4,856975.574777569,856976.139982529,0.565204960294068,77,Longer,Ring,77,L,Ring
208,Spatial,1243,1,1,30,1200,6.66666666666667,7.5,1,m,m,-800,800,-800,400,=,L,S,0.458779819779173,0.413038349862874,1.4320549681361,1.18384732312733,1.06519369238187,856977.558108924,856978.036040769,856978.036040769,856980.435880782,2.4,856981.906223489,856981.906223489,856983.506012237,1.6,856984.841447856,856985.28413869,0.442690834635869,77,Shorter,Ring,66,=,Index
208,Spatial,1243,1,1,31,400,10,5,2,r,r,0,800,0,400,S,=,L,0.468080196216116,0.260685433089454,1.41771975435731,1.08876610999896,1.43647044577938,856986.508174833,856986.996227656,856986.996227656,856987.796104368,0.8,856989.236157605,856989.236157605,856990.036158468,0.8,856991.274853325,856991.676132246,0.401278920704499,66,Shorter,Index,78,=,Middle
208,Spatial,1243,1,1,32,1200,3.33333333333333,7.5,1,l,l,-1600,-800,-1600,-400,L,S,=,0.240054518735621,0.357830592388186,1.80391841239006,1.61192343389077,1.47110214623664,856993.258182933,856993.516424217,856993.516424217,856995.916212902,2.4,856997.746090754,856997.746090754,856999.346095402,1.6,857001.108190424,857001.820145009,0.711954584694467,66,Longer,Index,78,S,Middle
208,Spatial,1243,1,1,33,800,5,5,1,l,l,-1600,-400,-1600,-800,S,=,L,0.454171426560378,0.494808520163885,1.63920092027243,1.728852942894,1.38704359449907,857003.441585672,857003.906311067,857003.906311067,857006.306250208,2.4,857007.976610623,857007.976610623,857009.576419903,1.6,857011.4582478,857011.972099863,0.513852063450031,66,Shorter,Index,66,S,Index
208,Spatial,1243,1,1,34,1200,5,5,1,l,l,-1600,-800,-1600,-400,L,S,=,0.296530838423631,0.43334688193868,1.09955707813719,1.69357242259822,1.4495116868439,857013.508323044,857013.816517346,857013.816517346,857015.416362877,1.6,857016.536797701,857016.536797701,857018.936585424,2.4,857020.791632461,857021.244049045,0.452416584361345,66,Longer,Index,66,L,Index
208,Spatial,1243,1,1,35,800,7.5,3.33333333333333,1,r,r,0,1200,0,800,L,S,=,0.266867977054681,0.316481425957249,1.5308216834633,1.64285095280086,1.40555644485844,857022.841670171,857023.126701939,857023.126701939,857024.726512181,1.6,857026.286685822,857026.286685822,857028.686514286,2.4,857030.474970357,857031.044052189,0.569081832189113,78,Shorter,Middle,66,L,Index
208,Spatial,1243,1,1,36,1200,2.5,5,1,r,r,0,800,0,1200,L,S,=,0.21837082198567,0.47057426688005,1.7185550582788,1.13948072218484,1.76892158982645,857032.591751735,857032.826791988,857032.826791988,857036.026657922,3.2,857037.776956383,857037.776956383,857040.176914772,2.4,857041.458416541,857042.612219535,1.15380299359094,66,Longer,Index,77,=,Ring
208,Spatial,1243,1,1,37,800,3.75,3.33333333333333,1,m,m,-800,400,-800,0,L,S,=,0.430259739975377,0.42387837023561,1.0877617448623,1.94853118531877,1.48074392859188,857044.525124399,857044.967149855,857044.967149855,857048.166948421,3.2,857049.27707139,857049.27707139,857051.676923914,2.4,857053.775172813,857054.364315734,0.589142921380699,78,Shorter,Middle,77,=,Ring
208,Spatial,1243,1,1,38,1200,5,5,1,m,m,-800,0,-800,400,=,L,S,0.459718203837045,0.299412961922233,1.99273606026618,1.79583285779005,1.49064304038072,857055.991831743,857056.467234066,857056.467234066,857058.067057461,1.6,857060.087213477,857060.087213477,857062.487031033,2.4,857064.441448369,857065.956125214,1.51467684505042,78,Longer,Middle,78,L,Middle
208,Spatial,1243,1,1,39,800,5,5,1,l,l,-1600,-1200,-1600,-800,S,=,L,0.390929324292672,0.421071288331272,1.53437965352337,1.99530628510351,1.38519125708186,857067.591927214,857067.997254222,857067.997254222,857068.797055546,0.8,857070.357631793,857070.357631793,857071.957344832,1.6,857074.108609172,857074.500024541,0.39141536981333,77,Longer,Ring,77,L,Ring
208,Spatial,1243,1,1,40,1200,2.5,5,1,m,m,-800,0,-800,400,=,L,S,0.385026828812034,0.209882664280537,1.38064722162268,1.06474960076862,1.54927752663002,857076.041939388,857076.437561819,857076.437561819,857079.63743834,3.2,857081.057570744,857081.057570744,857083.457447008,2.4,857084.674852247,857085.116121929,0.441269682487473,78,Longer,Middle,66,=,Index
208,Spatial,1243,1,1,41,1200,20,7.5,1,r,r,0,1600,0,1200,=,L,S,0.304556691163812,0.20007375776964,1.88798297151312,1.17934403560261,1.31383067380865,857086.825050711,857087.14754251,857087.14754251,857087.947334852,0.8,857089.857661146,857089.857661146,857091.457507318,1.6,857092.791577283,857093.340124067,0.54854678362608,77,Shorter,Ring,66,=,Index
208,Spatial,1243,1,1,42,400,1.66666666666667,1.25,2,r,r,0,400,0,400,L,S,=,0.256869984879796,0.365122325331742,1.17641322154495,1.35325706437899,1.60552267167457,857094.808709065,857095.077927546,857095.077927546,857097.477442908,2.4,857098.687813569,857098.687813569,857101.887678219,3.2,857103.392065736,857103.804111012,0.412045275443234,77,Equals to,Ring,66,L,Index
208,Spatial,1243,1,1,43,400,5,5,2,r,r,0,400,0,400,S,=,L,0.338934643907849,0.491313431913439,1.09118335051636,1.9295583174545,1.32238498520823,857105.558807904,857105.917961628,857105.917961628,857106.717779955,0.8,857107.827747977,857107.827747977,857108.627554755,0.8,857110.70880263,857111.108035156,0.399232525727712,78,Equals to,Middle,78,=,Middle
208,Spatial,1243,1,1,44,800,5,5,1,l,l,-1600,-1200,-1600,-800,=,L,S,0.373775782476456,0.208521256070644,1.71430409233069,1.98520404973585,1.99983843058906,857112.575475212,857112.968074727,857112.968074727,857113.767855841,0.8,857115.507898588,857115.507898588,857117.107719096,1.6,857119.24213033,857119.732056991,0.489926661481149,78,Longer,Middle,78,L,Middle
208,Spatial,1243,1,1,45,1200,3.33333333333333,7.5,1,m,m,-800,0,-800,400,S,=,L,0.234295588947622,0.268151247242281,1.10480388006505,1.19728415746395,1.72393562107275,857121.875477554,857122.128265848,857122.128265848,857124.52804555,2.4,857125.658292099,857125.658292099,857127.257808808,1.6,857128.608883378,857128.956017104,0.347133725532331,77,Longer,Ring,78,=,Middle
208,Spatial,1243,1,1,46,1600,10,20,2,r,r,0,1600,0,1600,=,L,S,0.279331161847628,0.384507080388712,1.07521051861481,1.81546819232721,1.12435027550402,857130.825563352,857131.118217051,857131.118217051,857132.717979494,1.6,857133.818201556,857133.818201556,857134.618030148,0.8,857136.575559262,857136.947894722,0.372335459920578,66,Equals to,Index,77,S,Ring
208,Spatial,1243,1,1,47,800,15,5,1,r,r,0,1200,0,800,S,=,L,0.330638291500473,0.336425261644802,1.41409126239896,1.18772366803439,1.32643945598902,857138.208902315,857138.55832511,857138.55832511,857139.358236148,0.8,857140.808256699,857140.808256699,857142.408040956,1.6,857143.7422942,857144.276088489,0.533794288756326,66,Shorter,Index,77,L,Ring
208,Spatial,1243,1,1,48,1200,10,5,1,l,l,-1600,0,-1600,-400,S,=,L,0.491154864090313,0.497958190455205,1.49632564977056,1.84690535551908,1.4503796447499,857145.742320084,857146.248622361,857146.248622361,857147.848117897,1.6,857149.368331176,857149.368331176,857151.768281224,2.4,857153.758978682,857154.084077995,0.325099312118255,66,Shorter,Index,77,L,Ring
208,Spatial,1243,1,1,49,1600,6.66666666666667,5,2,r,r,0,1600,0,1600,S,=,L,0.357302115083935,0.495833745302106,1.35695462585409,1.15317194511308,1.35755176254411,857161.492136024,857161.868779817,857161.868779817,857164.268597695,2.4,857165.668825949,857165.668825949,857168.868554258,3.2,857170.175723705,857170.500074907,0.324351202347316,78,Equals to,Middle,78,=,Middle
208,Spatial,1243,1,1,50,1200,5,5,1,l,l,-1600,0,-1600,-400,=,L,S,0.388497336358526,0.337426711048898,1.59411148588564,1.60828458164313,1.21471353856092,857171.992453136,857172.398464415,857172.398464415,857175.598444233,3.2,857177.218900391,857177.218900391,857179.618720193,2.4,857181.375802686,857182.32412632,0.948323633871041,77,Shorter,Ring,77,S,Ring
208,Spatial,1243,1,1,51,1200,10,5,1,m,m,-800,800,-800,400,S,=,L,0.397583296568965,0.354272619817329,1.28566997811199,1.00046473269732,1.74304414248755,857183.692490253,857184.108831993,857184.108831993,857185.708627799,1.6,857187.029144813,857187.029144813,857189.428738771,2.4,857190.575832264,857191.019784171,0.443951906636357,66,Shorter,Index,77,L,Ring
208,Spatial,1243,1,1,52,1600,10,20,2,m,m,-800,800,-800,800,L,S,=,0.335067655080453,0.35844258420775,1.20881667839625,1.32511678517935,1.62075056921081,857192.909208264,857193.258953785,857193.258953785,857194.858762744,1.6,857196.099253491,857196.099253491,857196.898747166,0.8,857198.359197983,857199.204072323,0.844874340225942,77,Equals to,Ring,77,=,Ring
208,Spatial,1243,1,1,53,1600,20,20,2,r,r,0,1600,0,1600,=,L,S,0.241195580356798,0.33733182132426,1.55761814429933,1.90697305460696,1.41984835575941,857200.975899119,857201.229225398,857201.229225398,857202.029036988,0.8,857203.619118985,857203.619118985,857204.419003076,0.8,857206.475943887,857206.884207214,0.408263326156884,66,Equals to,Index,66,=,Index
208,Spatial,1243,1,1,54,1600,6.66666666666667,5,2,m,m,-800,800,-800,800,L,S,=,0.34358723273944,0.298043091876983,1.41627330799186,1.49704195351845,1.21858059848441,857208.459279819,857208.81919123,857208.81919123,857211.219020656,2.4,857212.659487728,857212.659487728,857215.85929335,3.2,857217.509305339,857217.899863948,0.390558609040454,77,Equals to,Ring,66,L,Index
208,Spatial,1243,1,1,55,800,5,5,1,m,m,-800,400,-800,0,S,=,L,0.414574762168159,0.483606340046222,1.59882542327078,1.27881692831196,1.75753617838194,857219.259342632,857219.689552315,857219.689552315,857222.089373079,2.4,857223.719157193,857223.719157193,857225.319192959,1.6,857226.759383588,857227.516016193,0.756632605334744,66,Shorter,Index,66,S,Index
208,Spatial,1243,1,1,56,1600,5,5,2,l,l,-1600,-400,-1600,0,=,L,S,0.412028440247813,0.388751589828571,1.44723113337395,1.21585287316173,1.92702343603046,857229.409454432,857229.839487721,857229.839487721,857232.239297258,2.4,857233.719462596,857233.719462596,857236.919538655,3.2,857238.292739388,857238.708040481,0.415301093365997,78,Longer,Middle,78,L,Middle
208,Spatial,1243,1,1,57,1600,3.75,5,2,l,l,-1600,-400,-1600,0,L,S,=,0.297571191208919,0.460722241088114,1.47638217833054,1.79186416837288,1.35954670643414,857240.792783498,857241.109646188,857241.109646188,857244.309458868,3.2,857245.819582929,857245.819582929,857249.01948383,3.2,857250.959519351,857251.36402188,0.40450252906885,66,Longer,Index,77,=,Ring
208,Spatial,1243,1,1,58,800,7.5,3.33333333333333,1,l,l,-1600,-400,-1600,-800,S,=,L,0.443506434718477,0.240459886981495,1.58024973252684,1.71595028804573,1.76818040631896,857252.859520549,857253.319583089,857253.319583089,857254.919632008,1.6,857256.540079825,857256.540079825,857258.939877492,2.4,857260.809518448,857261.292067308,0.482548860600218,66,Shorter,Index,77,L,Ring
208,Spatial,1243,1,1,59,400,2.5,5,2,l,l,-1600,-1200,-1600,-1200,S,=,L,0.398776871642195,0.367144334640317,1.02851251443983,1.64040408865249,1.68495106623549,857263.209554826,857263.620126945,857263.620126945,857265.21995419,1.6,857266.28998174,857266.28998174,857267.089819956,0.8,857268.87624812,857269.19604971,0.319801590405405,78,Equals to,Middle,78,=,Middle
208,Spatial,1243,1,1,60,800,3.75,3.33333333333333,1,r,r,0,1200,0,800,S,=,L,0.339825486351536,0.374899263459557,1.97708306970257,1.00725548379236,1.15538846215352,857271.026276238,857271.380180313,857271.380180313,857274.580025395,3.2,857276.590374818,857276.590374818,857278.990128536,2.4,857280.14295155,857280.499978667,0.357027116348036,66,Shorter,Index,78,=,Middle
208,Spatial,1243,1,1,61,1200,10,5,1,l,l,-1600,0,-1600,-400,L,S,=,0.46166784438313,0.255309591657029,1.86059504980143,1.25474164633294,1.03493610670931,857281.793017363,857282.270421168,857282.270421168,857283.870170137,1.6,857285.770368717,857285.770368717,857288.170249792,2.4,857289.576372323,857290.139953657,0.563581334194168,78,Shorter,Middle,66,L,Index
208,Spatial,1243,1,1,62,800,1.25,3.33333333333333,1,l,l,-1600,-1200,-1600,-800,S,=,L,0.200566953242101,0.424867657182306,1.75063129015705,1.66517699115874,1.34111319688426,857291.32637867,857291.540402552,857291.540402552,857294.740277147,3.2,857296.530252702,857296.530252702,857298.930188635,2.4,857300.743084234,857301.044201041,0.301116807386279,77,Longer,Ring,78,=,Middle
208,Spatial,1243,1,1,63,400,2.5,1.25,2,m,m,-800,0,-800,-400,L,S,=,0.498085706898568,0.220880492729405,1.9554784833484,1.02268503161252,1.92589406327099,857302.543105664,857303.060627344,857303.060627344,857306.260391584,3.2,857308.250539152,857308.250539152,857311.450413427,3.2,857312.609818932,857313.179811683,0.569992750650272,78,Shorter,Middle,77,=,Ring
208,Spatial,1243,1,1,64,800,5,5,1,m,m,-800,400,-800,0,S,=,L,0.279164095988645,0.486326596585337,1.30884076594444,1.50408456731455,1.40130378354609,857315.243170369,857315.540893058,857315.540893058,857317.940437291,2.4,857319.280869684,857319.280869684,857320.880683456,1.6,857322.526496789,857322.955899049,0.429402259527706,66,Shorter,Index,66,S,Index
208,Spatial,1243,1,1,65,400,3.33333333333333,1.25,2,l,l,-1600,-800,-1600,-1200,L,S,=,0.412983915555236,0.285648681381124,1.7504886019805,1.52650886966289,1.14624889247853,857324.509868025,857324.940824535,857324.940824535,857327.340677059,2.4,857329.120787315,857329.120787315,857332.320668968,3.2,857334.009933826,857334.612000748,0.602066922117956,78,Shorter,Middle,78,S,Middle
208,Spatial,1243,1,1,66,800,3.75,3.33333333333333,1,r,r,0,1200,0,800,L,S,=,0.291964359272507,0.233730365414298,1.04690879979204,1.61597099106231,1.77060945858355,857335.909941617,857336.221150174,857336.221150174,857339.420657131,3.2,857340.500909598,857340.500909598,857342.900827887,2.4,857344.659937206,857345.796026163,1.13608895707875,78,Shorter,Middle,78,S,Middle
208,Spatial,1243,1,1,67,800,15,5,1,m,m,-800,400,-800,0,=,L,S,0.303413926568297,0.438916992055334,1.4834372126799,1.66924710360254,1.93995436867138,857347.710000901,857348.03113186,857348.03113186,857348.830884101,0.8,857350.341218608,857350.341218608,857351.941009602,1.6,857353.760033436,857354.25198857,0.491955133969896,77,Shorter,Ring,66,=,Index
208,Spatial,1243,1,1,68,1200,5,5,1,m,m,-800,0,-800,400,S,=,L,0.48697120081867,0.386855206854655,1.32629912386068,1.11952930374501,1.61020148805155,857356.34336609,857356.841300572,857356.841300572,857358.441180108,1.6,857359.801453775,857359.801453775,857362.201287692,2.4,857363.460051348,857363.867981698,0.407930350163952,77,Longer,Ring,77,L,Ring
208,Spatial,1243,1,1,69,400,5,5,2,m,m,-800,0,-800,-400,L,S,=,0.382572228945085,0.307210915452771,1.67253249766916,1.64567588993872,1.28790871691831,857365.626765333,857366.021436265,857366.021436265,857367.621221164,1.6,857369.331183605,857369.331183605,857370.131162974,0.8,857371.926750993,857372.7879673,0.861216307384893,78,Shorter,Middle,78,S,Middle
208,Spatial,1243,1,1,70,1200,10,7.5,1,r,r,0,800,0,1200,=,L,S,0.414319746458899,0.250616136511649,1.25676189762941,1.53583888637499,1.49354368585145,857374.226801455,857374.65149527,857374.65149527,857375.451412404,0.8,857376.731693808,857376.731693808,857378.331182286,1.6,857380.010130922,857380.580054658,0.569923735805787,78,Longer,Middle,66,=,Index
208,Spatial,1243,1,1,71,400,2.5,5,2,l,l,-1600,-1200,-1600,-1200,=,L,S,0.290233393765838,0.206054716056643,1.18646984102009,1.38860406444589,1.71084523750711,857382.21018039,857382.511716129,857382.511716129,857384.111557811,1.6,857385.331356196,857385.331356196,857386.131350002,0.8,857387.660207375,857388.091956888,0.431749513489194,66,Equals to,Index,66,=,Index
208,Spatial,1243,1,1,72,800,2.5,3.33333333333333,1,r,r,0,400,0,800,=,L,S,0.376682544247265,0.446779517213136,1.78630120254207,1.78789974998768,1.06918628392136,857389.943564218,857390.331611234,857390.331611234,857391.931437837,1.6,857393.741758645,857393.741758645,857396.141589034,2.4,857398.076887542,857398.643957745,0.567070203367621,78,Longer,Middle,66,=,Index
208,Spatial,1243,1,1,73,800,1.25,3.33333333333333,1,r,r,0,400,0,800,S,=,L,0.481760505253716,0.429489836070159,1.24392645387137,1.93596611387922,1.48195297599429,857415.177022952,857415.672172233,857415.672172233,857418.872024372,3.2,857420.152188363,857420.152188363,857422.551980255,2.4,857424.627019087,857424.971900324,0.34488123760093,77,Longer,Ring,78,=,Middle
208,Spatial,1243,1,1,74,800,1.66666666666667,5,1,m,m,-800,-400,-800,0,S,=,L,0.354194307617686,0.386952927523859,1.64263540646854,1.1603346377669,1.74995909420363,857426.610388077,857426.982169156,857426.982169156,857429.381978693,2.4,857431.052131228,857431.052131228,857432.651999215,1.6,857433.960412089,857435.884090121,1.92367803165689,77,Longer,Ring,77,L,Ring
208,Spatial,1243,1,1,75,1200,10,5,1,l,l,-1600,0,-1600,-400,L,S,=,0.349732899433994,0.476280263401385,1.01100640575157,1.71553040736774,1.18923203369383,857437.777126122,857438.142529981,857438.142529981,857439.742044124,1.6,857440.782514917,857440.782514917,857443.182370007,2.4,857445.043829553,857445.587978464,0.544148911139928,78,Shorter,Middle,66,L,Index
208,Spatial,1243,1,1,76,800,5,5,1,r,r,0,400,0,800,=,L,S,0.306091916206034,0.354407971716529,1.63566700392556,1.97389239342017,1.39595905663061,857446.927166431,857447.252472946,857447.252472946,857448.052287102,0.8,857449.712373196,857449.712373196,857451.312459007,1.6,857453.427198992,857453.859943045,0.432744052377529,78,Longer,Middle,66,=,Index
208,Spatial,1243,1,1,77,1200,5,5,1,r,r,0,1600,0,1200,L,S,=,0.228905146581972,0.313383590631466,1.01865958682771,1.02838587451078,1.52771748065002,857455.410558359,857455.652709826,857455.652709826,857458.852530848,3.2,857459.892756227,857459.892756227,857462.29258437,2.4,857463.477266332,857463.939827197,0.462560865096748,78,Shorter,Middle,77,=,Ring
208,Spatial,1243,1,1,78,800,1.66666666666667,5,1,l,l,-1600,-1200,-1600,-800,L,S,=,0.206217707155097,0.214810273076509,1.03742496783192,1.15293806588646,1.27626761398152,857465.627256159,857465.852632577,857465.852632577,857468.252533222,2.4,857469.312812245,857469.312812245,857470.912620242,1.6,857472.210619889,857473.667924852,1.45730496291071,66,Longer,Index,77,=,Ring
208,Spatial,1243,1,1,79,400,1.25,1.25,2,r,r,0,400,0,400,=,L,S,0.325024017659394,0.327136233960388,1.24078921256123,1.49111341468035,1.63016983980904,857475.093975052,857475.432862714,857475.432862714,857478.632666412,3.2,857479.903103691,857479.903103691,857483.102654918,3.2,857484.727374668,857485.347927893,0.620553224347532,66,Equals to,Index,66,=,Index
208,Spatial,1243,1,1,80,400,2.5,1.25,2,l,l,-1600,-800,-1600,-1200,=,L,S,0.369387489077616,0.253282452831083,1.09967422414692,1.87536590243263,1.34637819718056,857487.12740036,857487.512978806,857487.512978806,857490.712785391,3.2,857491.843097063,857491.843097063,857495.042875418,3.2,857497.060730678,857497.547898764,0.487168086343445,77,Shorter,Ring,66,=,Index
208,Spatial,1243,1,1,81,1200,2.5,5,1,m,m,-800,0,-800,400,=,L,S,0.39245910402765,0.36829428773905,1.88468005081776,1.0771343150125,1.07566536331924,857499.04412437,857499.453376067,857499.453376067,857502.653196126,3.2,857504.563433558,857504.563433558,857506.96320492,2.4,857508.1941685,857508.58775679,0.393588290084153,78,Longer,Middle,78,L,Middle
208,Spatial,1243,1,1,82,1200,6.66666666666667,7.5,1,l,l,-1600,0,-1600,-400,L,S,=,0.214084084069076,0.290769215001121,1.85121375639428,1.07887116840625,1.27744738475409,857509.810826357,857510.043285758,857510.043285758,857512.443236127,2.4,857514.323257874,857514.323257874,857515.923224347,1.6,857517.160831121,857517.69190896,0.531077839666978,78,Shorter,Middle,77,=,Ring
208,Spatial,1243,1,1,83,1200,20,7.5,1,l,l,-1600,0,-1600,-400,=,L,S,0.257037346115041,0.356420234060696,1.71329772982397,1.80673376053818,1.76523299833436,857519.110880027,857519.383387048,857519.383387048,857520.183256703,0.8,857521.923640463,857521.923640463,857523.523446855,1.6,857525.477581249,857525.891898117,0.414316867943853,77,Shorter,Ring,78,L,Middle
208,Spatial,1243,1,1,84,1600,7.5,20,2,r,r,0,1200,0,1600,L,S,=,0.377722140416197,0.256031663266159,1.42013571753215,1.19523464362568,1.88409846785203,857527.810894688,857528.203636318,857528.203636318,857529.803389137,1.6,857531.24370896,857531.24370896,857532.043449974,0.8,857533.394281194,857534.587912058,1.19363086426165,66,Longer,Index,78,S,Middle
208,Spatial,1243,1,1,85,800,1.66666666666667,5,1,l,l,-1600,-1200,-1600,-800,L,S,=,0.476135072231036,0.354865840535297,1.92937452556389,1.99868794993558,1.37526925075993,857536.627633743,857537.123680627,857537.123680627,857539.523447497,2.4,857541.493731657,857541.493731657,857543.0936622,1.6,857545.244361909,857546.339879295,1.09551738621667,66,Longer,Index,66,L,Index
208,Spatial,1243,1,1,86,1200,2.5,5,1,r,r,0,800,0,1200,=,L,S,0.215289173807127,0.214011052240295,1.63291138164444,1.41765613810863,1.84042662885964,857547.877679217,857548.104019965,857548.104019965,857551.303799603,3.2,857552.973840819,857552.973840819,857555.373642336,2.4,857556.94441938,857558.419868991,1.47544961120002,78,Longer,Middle,77,S,Ring
208,Spatial,1243,1,1,87,1600,5,5,2,l,l,-1600,0,-1600,0,S,=,L,0.33656207811444,0.409614390304952,1.81009715219075,1.90314457988731,1.80860358344353,857560.427763604,857560.783933823,857560.783933823,857563.983830875,3.2,857565.824006145,857565.824006145,857569.023861813,3.2,857571.077827272,857571.507825159,0.429997887462378,78,Equals to,Middle,77,L,Ring
208,Spatial,1243,1,1,88,1200,5,5,1,m,m,-800,0,-800,400,S,=,L,0.473784655057539,0.277925107670405,1.54780324846061,1.62498473612516,1.98291364381795,857573.461179287,857573.954126583,857573.954126583,857575.553917257,1.6,857577.12424588,857577.12424588,857579.524093592,2.4,857581.294452149,857581.931860083,0.63740793382749,77,Longer,Ring,78,=,Middle
208,Spatial,1243,1,1,89,1200,10,7.5,1,m,m,-800,0,-800,400,L,S,=,0.222469361173245,0.228511142834885,1.40863415828885,1.71615013941597,1.03148311426153,857584.061200973,857584.294256745,857584.294256745,857585.094152385,0.8,857586.534573261,857586.534573261,857588.134024527,1.6,857589.994579689,857590.516004002,0.52142431284301,66,Longer,Index,66,L,Index
208,Spatial,1243,1,1,90,1200,5,5,1,r,r,0,1600,0,1200,=,L,S,0.437791017717621,0.224058998372797,1.54447345120768,1.7084558147279,1.52125599107914,857591.69460947,857592.144355665,857592.144355665,857595.344225769,3.2,857596.924458828,857596.924458828,857599.324292746,2.4,857601.17795809,857601.635885088,0.45792699768208,77,Shorter,Ring,66,=,Index
208,Spatial,1243,1,1,91,800,7.5,3.33333333333333,1,m,m,-800,400,-800,0,=,L,S,0.403577601678286,0.454210534865415,1.81025643751335,1.01143031652187,1.00991589480367,857603.294635969,857603.714382057,857603.714382057,857605.314339227,1.6,857607.154698316,857607.154698316,857609.554545387,2.4,857610.728027275,857611.227792733,0.499765457585454,77,Shorter,Ring,66,=,Index
208,Spatial,1243,1,1,92,400,10,5,2,m,m,-800,0,-800,-400,S,=,L,0.474511470141392,0.259572734110031,1.57365118969955,1.31366968092843,1.89266728951562,857612.37802071,857612.864815669,857612.864815669,857613.664594216,0.8,857615.264877391,857615.264877391,857616.064594665,0.8,857617.528012257,857617.939798966,0.411786709097214,66,Shorter,Index,78,=,Middle
208,Spatial,1243,1,1,93,800,5,5,1,m,m,-800,-400,-800,0,=,L,S,0.497264131693845,0.329517848167915,1.14132448575058,1.06795323896667,1.72857280015298,857619.978081214,857620.494646905,857620.494646905,857621.29467279,0.8,857622.464914027,857622.464914027,857624.064781051,1.6,857625.278050834,857625.699807102,0.421756268246099,78,Longer,Middle,78,L,Middle
208,Spatial,1243,1,1,94,400,1.25,1.25,2,l,l,-1600,-1200,-1600,-1200,S,=,L,0.271016865407574,0.378174569271162,1.76170984068493,1.44632203598475,1.59191055289928,857627.578114353,857627.864938215,857627.864938215,857631.064800941,3.2,857632.855138039,857632.855138039,857636.05469857,3.2,857637.661450108,857638.076028114,0.414578006020747,78,Equals to,Middle,78,=,Middle
208,Spatial,1243,1,1,95,800,2.5,3.33333333333333,1,r,r,0,400,0,800,S,=,L,0.456516267907108,0.289641186154686,1.76762299400306,1.36364550302684,1.82886384711377,857639.811496512,857640.28519281,857640.28519281,857641.885006581,1.6,857643.675119119,857643.675119119,857646.074913898,2.4,857647.594881709,857647.907824967,0.312943258089945,77,Longer,Ring,78,=,Middle
208,Spatial,1243,1,1,96,1200,20,7.5,1,l,l,-1600,0,-1600,-400,=,L,S,0.20310391518606,0.32619080262118,1.8874607036933,1.68622985605415,1.30558616134527,857649.878239658,857650.095125092,857650.095125092,857650.895009504,0.8,857652.81531081,857652.81531081,857654.415073895,1.6,857656.244878318,857656.723921456,0.47904313786421,77,Shorter,Ring,78,L,Middle
