Subject,Task,SequenceOrder,ListNo,RunNo,TrialNo,Aud_Probe_Dist,Aud_Standard_Vel,Aud_Probe_Vel,Main_Control,Aud_Std_StartCode,Aud_Probe_StartCode,Aud_Std_StartPt,Aud_Std_EndPt,Aud_Probe_StartPt,Aud_Probe_EndPt,RespIndex,RespMiddle,RespRing,ISI_Cross_Std,ISI_Cross_Probe,ISI_Std_Probe,ISI_Probe_Response,ITI,TrialOnset,StdOnset,StdOnsetByStop,StdOffset,StdDur,ProbeOnset,ProbeOnsetByStop,ProbeOffset,ProbeDur,RespWinStart,RespTime,RT,CorrectKC,CorrectResponse,CorrectFinger,SubjRespKC,SubjResponse,SubjRespFinger
231,Temporal,2314,1,3,1,800,1.66666666666667,5,1,l,l,-1600,-1200,-1600,-800,L,S,=,0.245402133994343,0.200389085907269,1.56709226605239,1.61077713952386,1.96002171879621,1228923.35322114,1228923.60970659,1228923.60970659,1228926.01063643,2.4,1228927.60093618,1228927.60093618,1228929.20074347,1.6,1228930.9699165,1228931.5931741,0.623257596977055,78,Shorter,Middle,78,S,Middle
231,Temporal,2314,1,3,2,1200,3.33333333333333,7.5,1,l,l,-1600,-800,-1600,-400,S,=,L,0.423240154484763,0.496728120866236,1.48290003346823,1.58671748508277,1.98396390539493,1228933.70333115,1228934.14116253,1228934.14116253,1228936.54099426,2.4,1228938.05108064,1228938.05108064,1228939.65096235,1.6,1228941.38664135,1228941.78507218,0.398430828237906,66,Shorter,Index,66,S,Index
231,Temporal,2314,1,3,3,800,1.25,3.33333333333333,1,r,r,0,400,0,800,=,L,S,0.431344931187177,0.205063751579537,1.07233161638855,1.1179050055753,1.71830229414161,1228943.92006371,1228944.37144523,1228944.37144523,1228947.57093633,3.2,1228948.67133686,1228948.67133686,1228951.07118591,2.4,1228952.33671106,1228953.37697911,1.04026804934256,77,Shorter,Ring,66,=,Index
231,Temporal,2314,1,3,4,400,2.5,1.25,2,l,l,-1600,-800,-1600,-1200,S,=,L,0.36163393068696,0.499073630730511,1.90705121519557,1.43022679132757,1.97405214335149,1228955.25342184,1228955.63140052,1228955.63140052,1228958.8312615,3.2,1228960.77115798,1228960.77115798,1228963.97117776,3.2,1228965.553462,1228965.92902348,0.375561484135687,78,Equals to,Middle,78,=,Middle
231,Temporal,2314,1,3,5,1600,3.75,5,2,l,l,-1600,-400,-1600,0,L,S,=,0.404911214700179,0.218378903829221,1.64007958679399,1.35433031717072,1.33342490735276,1228968.07019376,1228968.49163696,1228968.49163696,1228971.69149474,3.2,1228973.36168931,1228973.36168931,1228976.56166675,3.2,1228978.05352616,1228980.23311185,2.17958569061011,77,Equals to,Ring,77,=,Ring
231,Temporal,2314,1,3,6,800,3.75,3.33333333333333,1,m,m,-800,400,-800,0,L,S,=,0.326327325423363,0.287949340166418,1.33218501910891,1.09362656935418,1.98899280837806,1228981.72029388,1228982.06176688,1228982.06176688,1228985.26167855,3.2,1228986.62192467,1228986.62192467,1228989.02178751,2.4,1228990.27027422,1228990.63322593,0.362951713381335,78,Shorter,Middle,78,S,Middle
231,Temporal,2314,1,3,7,800,5,5,1,m,m,-800,400,-800,0,=,L,S,0.374718075891547,0.477402754330767,1.04013328710156,1.24806297720334,1.74999629703129,1228992.77034062,1228993.16180775,1228993.16180775,1228995.5617261,2.4,1228996.62204304,1228996.62204304,1228998.22186251,1.6,1228999.62033449,1229000.00104549,0.380711000412703,77,Shorter,Ring,77,S,Ring
231,Temporal,2314,1,3,8,1600,15,20,2,r,r,0,1200,0,1600,=,L,S,0.492903431844732,0.348514377545576,1.17631997814605,1.11687218179462,1.04553378786758,1229001.90372727,1229002.41220122,1229002.41220122,1229003.21200843,0.8,1229004.41187368,1229004.41187368,1229005.21187081,0.8,1229006.47037649,1229006.86501672,0.394640230108052,66,Equals to,Index,66,=,Index
231,Temporal,2314,1,3,9,800,1.66666666666667,5,1,m,m,-800,-400,-800,0,S,=,L,0.392796363235895,0.221089698378499,1.71007826577304,1.76834069681792,1.75616458352033,1229008.07041351,1229008.48219319,1229008.48219319,1229010.88199155,2.4,1229012.63215216,1229012.63215216,1229014.23194308,1.6,1229016.15376625,1229016.59317731,0.439411058556288,66,Shorter,Index,66,S,Index
231,Temporal,2314,1,3,10,1200,5,5,1,m,m,-800,0,-800,400,=,L,S,0.483621215789926,0.394050449799287,1.86880616395256,1.00373927348844,1.38035978228276,1229018.50386172,1229019.00247815,1229019.00247815,1229020.60227934,1.6,1229022.50254841,1229022.50254841,1229024.90234837,2.4,1229026.05382836,1229026.72891416,0.675085798371583,78,Longer,Middle,78,L,Middle
231,Temporal,2314,1,3,11,1600,7.5,20,2,m,m,-800,400,-800,800,L,S,=,0.480211230042391,0.393124126456549,1.79735253229467,1.69623013198693,1.54758520464223,1229028.25391908,1229028.7527064,1229028.7527064,1229030.35216722,1.6,1229032.18249019,1229032.18249019,1229032.9822326,0.8,1229034.83721376,1229035.52105938,0.683845622232184,78,Shorter,Middle,78,S,Middle
231,Temporal,2314,1,3,12,800,5,5,1,m,m,-800,400,-800,0,S,=,L,0.415123655549974,0.439414491861801,1.95872674699828,1.46619298694023,1.82625244087474,1229037.22061597,1229037.65255101,1229037.65255101,1229040.05240776,2.4,1229042.04285495,1229042.04285495,1229043.64258492,1.6,1229045.25394924,1229045.68910999,0.43516075075604,66,Shorter,Index,66,S,Index
231,Temporal,2314,1,3,13,1600,5,5,2,l,l,-1600,0,-1600,0,=,L,S,0.387456456914384,0.263308577518197,1.38454927924413,1.78522365960803,1.58982797631467,1229047.6873228,1229048.09270248,1229048.09270248,1229051.29259329,3.2,1229052.70283803,1229052.70283803,1229055.90264929,3.2,1229057.83742852,1229058.27329553,0.435867010615766,66,Equals to,Index,78,L,Middle
231,Temporal,2314,1,3,14,800,3.75,3.33333333333333,1,m,m,-800,400,-800,0,L,S,=,0.496539070110219,0.47038734869036,1.98291156856295,1.59332198202536,1.66558520911747,1229060.00412102,1229060.51290839,1229060.51290839,1229063.71273794,3.2,1229065.7230399,1229065.7230399,1229068.12291879,2.4,1229069.8707671,1229070.34527263,0.474505531601608,78,Shorter,Middle,78,S,Middle
231,Temporal,2314,1,3,15,800,15,5,1,m,m,-800,400,-800,0,L,S,=,0.313099610514522,0.266996107001301,1.16896918657413,1.14295959988576,1.56432200960429,1229072.17083389,1229072.50327117,1229072.50327117,1229073.30276882,0.8,1229074.50327406,1229074.50327406,1229076.10304702,1.6,1229077.38754662,1229080.03323927,2.64569265162572,66,Longer,Index,77,=,Ring
231,Temporal,2314,1,3,16,1200,10,7.5,1,r,r,0,800,0,1200,L,S,=,0.403342316514296,0.311508244201167,1.22376762573751,1.4592013133636,1.12679272832013,1229081.75420652,1229082.1731465,1229082.1731465,1229082.97301596,0.8,1229084.22317624,1229084.22317624,1229085.82301753,1.6,1229087.42088602,1229087.81722714,0.396341122919694,66,Longer,Index,66,L,Index
231,Temporal,2314,1,3,17,400,1.25,1.25,2,r,r,0,400,0,400,L,S,=,0.35539736849682,0.334528275150032,1.60840911659872,1.85964278525075,1.11234250119379,1229089.104253,1229089.47336311,1229089.47336311,1229092.67313106,3.2,1229094.31363475,1229094.31363475,1229097.51342035,3.2,1229099.50435839,1229099.92910529,0.424746901262552,77,Equals to,Ring,77,=,Ring
231,Temporal,2314,1,3,18,1600,10,20,2,r,r,0,1600,0,1600,S,=,L,0.410574085244045,0.33918705819516,1.1969502732247,1.13199954809429,1.34625477062844,1229101.18770796,1229101.61350297,1229101.61350297,1229103.21327913,1.6,1229104.43377548,1229104.43377548,1229105.23328628,0.8,1229106.52105489,1229107.52934666,1.00829177349806,66,Shorter,Index,66,S,Index
231,Temporal,2314,1,3,19,1200,5,5,1,m,m,-800,0,-800,400,L,S,=,0.325250653516436,0.252386939179936,1.50528831661357,1.03657792826921,1.1072761393856,1229109.03771735,1229109.37347879,1229109.37347879,1229110.97337461,1.6,1229112.50364266,1229112.50364266,1229114.90353149,2.4,1229116.08780086,1229116.50532852,0.417527665616944,66,Longer,Index,66,L,Index
231,Temporal,2314,1,3,20,1200,6.66666666666667,7.5,1,m,m,-800,800,-800,400,=,L,S,0.25770103436012,0.454174917726769,1.59535403145555,1.95575634847476,1.8150586931397,1229117.75447599,1229118.02369087,1229118.02369087,1229120.42349726,2.4,1229122.04401594,1229122.04401594,1229123.64353706,1.6,1229125.73779139,1229126.29733965,0.559548259247094,77,Shorter,Ring,77,S,Ring
231,Temporal,2314,1,3,21,800,3.75,3.33333333333333,1,r,r,0,1200,0,800,L,S,=,0.325626567248638,0.255352901314341,1.59814592305687,1.75201445284163,1.19108627207159,1229128.27121545,1229128.61389852,1229128.61389852,1229131.8137903,3.2,1229133.43424129,1229133.43424129,1229135.83374066,2.4,1229137.73788956,1229138.16094003,0.423050469253212,78,Shorter,Middle,77,=,Ring
231,Temporal,2314,1,3,22,800,15,5,1,m,m,-800,400,-800,0,L,S,=,0.386468361218902,0.395205506723304,1.3983972482533,1.35681304124123,1.77745835672834,1229139.50458715,1229139.90415454,1229139.90415454,1229140.70394058,0.8,1229142.1343195,1229142.1343195,1229143.73379507,1.6,1229145.23791105,1229145.65716354,0.419252492487431,66,Longer,Index,77,=,Ring
231,Temporal,2314,1,3,23,800,3.75,3.33333333333333,1,r,r,0,1200,0,800,L,S,=,0.242579314690318,0.424061850037829,1.65991972983126,1.41003557175683,1.70680649970022,1229147.58801945,1229147.84417255,1229147.84417255,1229151.04395173,3.2,1229152.73433053,1229152.73433053,1229155.13414077,2.4,1229156.70471297,1229157.07290935,0.368196376599371,78,Shorter,Middle,77,=,Ring
231,Temporal,2314,1,3,24,1200,20,7.5,1,l,l,-1600,0,-1600,-400,=,L,S,0.49937309578818,0.393881627199379,1.98128608635212,1.0084360488095,1.79334011759967,1229158.92140989,1229159.43458679,1229159.43458679,1229160.23408796,0.8,1229162.25434249,1229162.25434249,1229163.85422677,1.6,1229165.00471066,1229166.53699266,1.53228200040758,78,Longer,Middle,78,L,Middle
231,Temporal,2314,1,3,25,1200,10,7.5,1,m,m,-800,0,-800,400,S,=,L,0.218781501143091,0.464480148814225,1.88592858388177,1.27452715053483,1.06456426976342,1229171.07147825,1229171.304583,1229171.304583,1229172.10421891,0.8,1229174.02467862,1229174.02467862,1229175.62451574,1.6,1229177.03811001,1229177.49718175,0.459071739576757,77,Longer,Ring,77,L,Ring
231,Temporal,2314,1,3,26,400,2.5,1.25,2,m,m,-800,0,-800,-400,S,=,L,0.481360724153385,0.291701996123876,1.02679552508629,1.45024453354245,1.42414556663208,1229178.72150908,1229179.21484982,1229179.21484982,1229182.41442754,3.2,1229183.46455677,1229183.46455677,1229186.66466862,3.2,1229188.2715478,1229188.93692356,0.665375758660957,78,Equals to,Middle,77,L,Ring
231,Temporal,2314,1,3,27,1200,20,7.5,1,r,r,0,1600,0,1200,L,S,=,0.397209609659233,0.293492421789954,1.1667355962975,1.4164220633799,1.20618078264146,1229190.5049519,1229190.91499155,1229190.91499155,1229191.7145694,0.8,1229192.92489247,1229192.92489247,1229194.52467248,1.6,1229196.08829366,1229196.49703996,0.408746300032362,66,Longer,Index,66,L,Index
231,Temporal,2314,1,3,28,800,5,5,1,l,l,-1600,-1200,-1600,-800,S,=,L,0.483149082462278,0.490157923671753,1.75954427644087,1.35044043314069,1.89559363348403,1229197.85500095,1229198.35515682,1229198.35515682,1229199.15472375,0.8,1229200.94495095,1229200.94495095,1229202.54474219,1.6,1229204.03832688,1229204.80893344,0.770606566453353,77,Longer,Ring,77,L,Ring
231,Temporal,2314,1,3,29,1200,2.5,5,1,r,r,0,800,0,1200,S,=,L,0.236885116892527,0.324522320263495,1.50198051988234,1.7478369101096,1.93141561255216,1229206.87167817,1229207.12507077,1229207.12507077,1229210.32486631,3.2,1229211.85518024,1229211.85518024,1229214.25498566,2.4,1229216.15502957,1229217.3530832,1.19805362913758,66,Shorter,Index,66,S,Index
231,Temporal,2314,1,3,30,800,1.66666666666667,5,1,r,r,0,400,0,800,S,=,L,0.234542917669357,0.286895241629871,1.99210479142104,1.91494419162731,1.96427119229292,1229219.43840214,1229219.68525197,1229219.68525197,1229222.0850189,2.4,1229224.11538511,1229224.11538511,1229225.71517539,1.6,1229227.78844285,1229228.70514304,0.916700190631673,66,Shorter,Index,66,S,Index
231,Temporal,2314,1,3,31,1600,3.75,5,2,l,l,-1600,-400,-1600,0,S,=,L,0.367286787972819,0.384091176042618,1.75644439749478,1.74039293998437,1.81801770986082,1229230.8218483,1229231.20560944,1229231.20560944,1229234.4053668,3.2,1229236.19572424,1229236.19572424,1229239.39553422,3.2,1229241.27190591,1229241.84117245,0.569266541162506,78,Equals to,Middle,77,L,Ring
231,Temporal,2314,1,3,32,1200,3.33333333333333,7.5,1,l,l,-1600,-800,-1600,-400,=,L,S,0.342837088685564,0.21779551543817,1.75709496350403,1.61145980416299,1.73858687201369,1229243.80528464,1229244.16562145,1229244.16562145,1229246.56549392,2.4,1229248.36576767,1229248.36576767,1229249.9656821,1.6,1229251.73857896,1229252.21737105,0.47879208996892,77,Shorter,Ring,77,S,Ring
231,Temporal,2314,1,3,33,400,1.66666666666667,1.25,2,m,m,-800,-400,-800,-400,L,S,=,0.383154482891797,0.255632208425934,1.19402331539297,1.82666363011203,1.21495992928994,1229254.10534341,1229254.50572948,1229254.50572948,1229256.90559682,2.4,1229258.1358802,1229258.1358802,1229261.33571007,3.2,1229263.32204857,1229263.88137827,0.559329694369808,66,Longer,Index,66,L,Index
231,Temporal,2314,1,3,34,800,5,5,1,m,m,-800,400,-800,0,S,=,L,0.479491390752851,0.409412253344243,1.90029531203456,1.04377349752351,1.12782738319733,1229265.25536461,1229265.74591855,1229265.74591855,1229268.14576664,2.4,1229270.0658215,1229270.0658215,1229271.66580619,1.6,1229272.87204549,1229273.61714155,0.745096057886258,66,Shorter,Index,66,S,Index
231,Temporal,2314,1,3,35,1200,3.33333333333333,7.5,1,m,m,-800,0,-800,400,=,L,S,0.350441826997184,0.214720406087951,1.2137990305004,1.20869242690854,1.00215758576625,1229274.88879635,1229275.25616786,1229275.25616786,1229277.65598836,2.4,1229278.89611267,1229278.89611267,1229280.4961227,1.6,1229281.83884185,1229282.28917235,0.450330504681915,77,Shorter,Ring,77,S,Ring
231,Temporal,2314,1,3,36,400,1.66666666666667,1.25,2,r,r,0,400,0,400,S,=,L,0.441308452504547,0.336151854617367,1.68871453267467,1.9900109910959,1.57286126123731,1229283.4388535,1229283.89642192,1229283.89642192,1229286.29615805,2.4,1229288.00647855,1229288.00647855,1229291.20601424,3.2,1229293.33884022,1229293.73713343,0.398293204139918,77,Longer,Ring,77,L,Ring
231,Temporal,2314,1,3,37,1600,5,5,2,l,l,-1600,-400,-1600,0,S,=,L,0.330571625359104,0.432762831267789,1.08077457802908,1.43954078476615,1.61389597754639,1229295.45558594,1229295.80615557,1229295.80615557,1229298.2061631,2.4,1229299.31640007,1229299.31640007,1229302.51624694,3.2,1229304.1056039,1229304.48924318,0.383639282314107,77,Longer,Ring,77,L,Ring
231,Temporal,2314,1,3,38,800,2.5,3.33333333333333,1,m,m,-800,-400,-800,0,S,=,L,0.386841817858643,0.302271715987613,1.32904396803893,1.50093514923987,1.87875656171032,1229306.25562639,1229306.65667107,1229306.65667107,1229308.25648412,1.6,1229309.61670682,1229309.61670682,1229312.01650614,2.4,1229313.67187681,1229314.09739393,0.425517117138952,77,Longer,Ring,77,L,Ring
231,Temporal,2314,1,3,39,800,15,5,1,r,r,0,1200,0,800,L,S,=,0.276235196183291,0.465811637809491,1.41450530545593,1.98359511366795,1.26054252666006,1229316.12239084,1229316.41665972,1229316.41665972,1229317.21647849,0.8,1229318.66678788,1229318.66678788,1229320.2666497,1.6,1229322.40575518,1229322.92102204,0.515266861068085,66,Longer,Index,66,L,Index
231,Temporal,2314,1,3,40,1200,2.5,5,1,m,m,-800,0,-800,400,L,S,=,0.315739605524344,0.449439997885293,1.49404646724,1.8919986107974,1.26818326741252,1229324.40575025,1229324.73697523,1229324.73697523,1229327.9367836,3.2,1229329.46713955,1229329.46713955,1229331.86665625,2.4,1229333.90576725,1229334.2813698,0.375602546613663,78,Shorter,Middle,77,=,Ring
231,Temporal,2314,1,3,41,1200,2.5,5,1,r,r,0,800,0,1200,S,=,L,0.247090991040742,0.479514028250008,1.86371990096495,1.76610004714585,1.59018544338601,1229335.70585554,1229335.96727108,1229335.96727108,1229339.16682281,3.2,1229341.06722148,1229341.06722148,1229343.46709587,2.4,1229345.38922689,1229345.7692592,0.380032309098169,66,Shorter,Index,66,S,Index
231,Temporal,2314,1,3,42,1600,20,20,2,r,r,0,1600,0,1600,=,L,S,0.352807990127249,0.387569403593116,1.25386585063358,1.28287885369645,1.2489046048195,1229347.50593099,1229347.87719528,1229347.87719528,1229348.6769393,0.8,1229349.9573477,1229349.9573477,1229350.75714241,0.8,1229352.18928226,1229352.84907189,0.659789630910382,66,Equals to,Index,77,S,Ring
231,Temporal,2314,1,3,43,800,7.5,3.33333333333333,1,m,m,-800,400,-800,0,=,L,S,0.321610015114949,0.442082445549908,1.66656380713862,1.1091100460434,1.73734506135997,1229354.25591639,1229354.59737079,1229354.59737079,1229356.19712674,1.6,1229357.88729382,1229357.88729382,1229360.28715313,2.4,1229361.53932531,1229362.40918315,0.869857843732461,78,Longer,Middle,78,L,Middle
231,Temporal,2314,1,3,44,400,3.33333333333333,1.25,2,r,r,0,800,0,400,L,S,=,0.435151042284859,0.275133286993494,1.16328702751576,1.5490352016526,1.25798388449311,1229364.28936323,1229364.73740671,1229364.73740671,1229367.13729586,2.4,1229368.33766348,1229368.33766348,1229371.53725948,3.2,1229373.23934279,1229374.00924167,0.769898876547813,66,Longer,Index,66,L,Index
231,Temporal,2314,1,3,45,400,1.25,1.25,2,l,l,-1600,-1200,-1600,-1200,=,L,S,0.262057129820342,0.490918194115743,1.88543097326192,1.27348269627991,1.43235265453405,1229375.42272742,1229375.69765098,1229375.69765098,1229378.89749303,3.2,1229380.80780064,1229380.80780064,1229384.00760164,3.2,1229385.42281932,1229385.88124321,0.458423893433064,66,Equals to,Index,66,=,Index
231,Temporal,2314,1,3,46,400,10,5,2,r,r,0,800,0,400,=,L,S,0.431273110184294,0.477186949650125,1.59496637937059,1.68658819497524,1.12692817525872,1229387.47278667,1229387.91776425,1229387.91776425,1229388.71753297,0.8,1229390.34776393,1229390.34776393,1229391.14761831,0.8,1229392.97279983,1229393.29747728,0.324677449651062,66,Equals to,Index,66,=,Index
231,Temporal,2314,1,3,47,1200,6.66666666666667,7.5,1,l,l,-1600,0,-1600,-400,=,L,S,0.22960289670206,0.452173253161434,1.48178846397736,1.86837173438384,1.370394419777,1229394.57286043,1229394.81767718,1229394.81767718,1229397.21767989,2.4,1229398.73806114,1229398.73806114,1229400.33785399,1.6,1229402.35618696,1229402.70509684,0.348909882362932,77,Shorter,Ring,77,S,Ring
231,Temporal,2314,1,3,48,800,7.5,3.33333333333333,1,l,l,-1600,-400,-1600,-800,=,L,S,0.412548621595794,0.357560061872207,1.63007988938257,1.74520675574529,1.45764815463311,1229404.22295814,1229404.64819708,1229404.64819708,1229406.24793314,1.6,1229407.89830503,1229407.89830503,1229410.29806778,2.4,1229412.18958734,1229412.60138664,0.411799296038225,78,Longer,Middle,78,L,Middle
231,Temporal,2314,1,3,49,400,2.5,5,2,l,l,-1600,-1200,-1600,-1200,=,L,S,0.38832143220444,0.460952486943339,1.1332499540763,1.3228561857404,1.96510198109705,1229415.72302102,1229416.12803466,1229416.12803466,1229417.72793273,1.6,1229418.88824981,1229418.88824981,1229419.6880968,0.8,1229421.1563054,1229421.54530785,0.389002452837303,77,Shorter,Ring,77,S,Ring
231,Temporal,2314,1,3,50,1200,6.66666666666667,7.5,1,l,l,-1600,0,-1600,-400,L,S,=,0.43930183434102,0.276698443388932,1.83826494663761,1.20085614800939,1.33841363674638,1229423.67301791,1229424.12828489,1229424.12828489,1229426.52801011,2.4,1229428.38830466,1229428.38830466,1229429.98826946,1.6,1229431.33969933,1229431.72921763,0.389518302632496,78,Shorter,Middle,78,S,Middle
231,Temporal,2314,1,3,51,1200,10,7.5,1,m,m,-800,0,-800,400,L,S,=,0.272463567038257,0.41573616541713,1.38693273738206,1.14384728117177,1.36942742780202,1229433.22310732,1229433.50846111,1229433.50846111,1229434.30831677,0.8,1229435.72847814,1229435.72847814,1229437.32828253,1.6,1229438.62315326,1229438.97747039,0.354317128891125,66,Longer,Index,66,L,Index
231,Temporal,2314,1,3,52,800,1.25,3.33333333333333,1,r,r,0,400,0,800,S,=,L,0.271147566534905,0.25437598208157,1.71386788714761,1.18239868259929,1.2736383318071,1229440.50648758,1229440.78853198,1229440.78853198,1229443.98842826,3.2,1229445.73864308,1229445.73864308,1229448.13843535,2.4,1229449.47317099,1229449.96119802,0.488027021754533,66,Shorter,Index,78,=,Middle
231,Temporal,2314,1,3,53,1200,6.66666666666667,7.5,1,m,m,-800,800,-800,400,L,S,=,0.332817239238777,0.465428847732341,1.74463712399272,1.56615100802599,1.01453971903357,1229451.38989557,1229451.73876017,1229451.73876017,1229454.13857104,2.4,1229455.91905708,1229455.91905708,1229457.51850121,1.6,1229459.23993714,1229459.86528812,0.625350970774889,78,Shorter,Middle,78,S,Middle
231,Temporal,2314,1,3,54,800,1.25,3.33333333333333,1,r,r,0,400,0,800,S,=,L,0.492362770363606,0.379335721924773,1.97814828256161,1.7361963595096,1.83662529569112,1229461.03996842,1229461.54892228,1229461.54892228,1229464.74877878,3.2,1229466.74891933,1229466.74891933,1229469.14867439,2.4,1229471.02328671,1229471.44944767,0.426160966977477,66,Shorter,Index,66,S,Index
231,Temporal,2314,1,3,55,1200,5,5,1,l,l,-1600,-800,-1600,-400,L,S,=,0.389859977085621,0.464071588915032,1.92253665567336,1.79416617294743,1.71690228556818,1229473.44005138,1229473.84918861,1229473.84918861,1229475.44878385,1.6,1229477.39919654,1229477.39919654,1229479.79900356,2.4,1229481.74004535,1229482.20949889,0.469453539233655,66,Longer,Index,77,=,Ring
231,Temporal,2314,1,3,56,1200,5,5,1,m,m,-800,0,-800,400,S,=,L,0.251474764013228,0.476373748759093,1.70984424596822,1.86509889407984,1.35134117427229,1229484.07343611,1229484.33941634,1229484.33941634,1229485.93887266,1.6,1229487.67937488,1229487.67937488,1229490.07916907,2.4,1229492.09010627,1229492.49715031,0.407044045627117,77,Longer,Ring,77,L,Ring
231,Temporal,2314,1,3,57,1600,7.5,20,2,r,r,0,1200,0,1600,=,L,S,0.463732687872823,0.475822021456731,1.80143850804657,1.93373928883647,1.1818009854417,1229494.00681191,1229494.48930698,1229494.48930698,1229496.08909469,1.6,1229497.91938494,1229497.91938494,1229498.71937341,0.8,1229500.80686555,1229501.25732054,0.450454991078004,77,Shorter,Ring,77,S,Ring
231,Temporal,2314,1,3,58,800,5,5,1,m,m,-800,-400,-800,0,=,L,S,0.350006245098633,0.390198759526349,1.20401348178485,1.99352984432994,1.09321554599699,1229502.59018615,1229502.95942169,1229502.95942169,1229503.75940599,0.8,1229504.98962104,1229504.98962104,1229506.58941678,1.6,1229508.74019388,1229509.1452435,0.405049618566409,78,Longer,Middle,78,L,Middle
231,Temporal,2314,1,3,59,800,5,5,1,r,r,0,400,0,800,L,S,=,0.390752379782007,0.438601497036658,1.93580619273965,1.30189572466332,1.4210815089973,1229510.39028759,1229510.79930997,1229510.79930997,1229511.59931545,0.8,1229513.55991329,1229513.55991329,1229515.15964486,1.6,1229516.6069719,1229517.36945598,0.762484077829868,66,Longer,Index,66,L,Index
231,Temporal,2314,1,3,60,800,7.5,3.33333333333333,1,r,r,0,1200,0,800,=,L,S,0.292628366440487,0.30164702136413,1.06825548600352,1.00131113798027,1.44287436127526,1229518.94033048,1229519.24983779,1229519.24983779,1229520.84963898,1.6,1229521.93977384,1229521.93977384,1229524.33959049,2.4,1229525.49034738,1229525.90527803,0.414930645842105,78,Longer,Middle,78,L,Middle
231,Temporal,2314,1,3,61,1200,10,5,1,m,m,-800,800,-800,400,S,=,L,0.32173837767698,0.377633867884009,1.9024315856925,1.60891419434133,1.80460009115026,1229527.49033078,1229527.82993182,1229527.82993182,1229529.42968521,1.6,1229531.36004071,1229531.36004071,1229533.75977106,2.4,1229535.50708396,1229535.89735133,0.39026737282984,77,Longer,Ring,77,L,Ring
231,Temporal,2314,1,3,62,800,7.5,3.33333333333333,1,l,l,-1600,-400,-1600,-800,S,=,L,0.413278509225216,0.457561313111424,1.14910626165412,1.32913250862689,1.11665520920557,1229537.85708232,1229538.29005611,1229538.29005611,1229539.88988521,1.6,1229541.07014559,1229541.07014559,1229543.47001967,2.4,1229544.95708212,1229545.36930552,0.412223396357149,77,Longer,Ring,77,L,Ring
231,Temporal,2314,1,3,63,400,3.33333333333333,1.25,2,l,l,-1600,-800,-1600,-1200,=,L,S,0.315829783354212,0.499999285085558,1.20427378520474,1.80400366615549,1.90462187630154,1229546.64046868,1229546.97001939,1229546.97001939,1229549.37007022,2.4,1229550.61015604,1229550.61015604,1229553.81011358,3.2,1229555.75722561,1229556.29754432,0.540318718412891,78,Longer,Middle,78,L,Middle
231,Temporal,2314,1,3,64,1600,5,5,2,l,l,-1600,-400,-1600,0,L,S,=,0.491829940044896,0.441113233874892,1.95314331655183,1.35536437318075,1.61227074196379,1229558.35723181,1229558.86037466,1229558.86037466,1229561.26019837,2.4,1229563.24053068,1229563.24053068,1229566.44029638,3.2,1229567.94055472,1229568.29716064,0.356605926062912,66,Longer,Index,66,L,Index
231,Temporal,2314,1,3,65,1600,6.66666666666667,5,2,r,r,0,1600,0,1600,L,S,=,0.282332286436796,0.386791935449385,1.08872060248325,1.05720688737397,1.17376826515988,1229570.07397024,1229570.37060344,1229570.37060344,1229572.77042554,2.4,1229573.89063337,1229573.89063337,1229577.09058161,3.2,1229578.29021111,1229578.6971788,0.406967694638297,66,Longer,Index,66,L,Index
231,Temporal,2314,1,3,66,400,5,5,2,m,m,-800,0,-800,-400,=,L,S,0.437166839924218,0.392796638267518,1.90238482989239,1.03848571221545,1.89801424786999,1229580.02404861,1229580.48072841,1229580.48072841,1229582.08053248,1.6,1229584.0108328,1229584.0108328,1229584.81068108,0.8,1229585.99067653,1229586.60913337,0.618456838885322,77,Shorter,Ring,77,S,Ring
231,Temporal,2314,1,3,67,1200,20,7.5,1,l,l,-1600,0,-1600,-400,S,=,L,0.457866199938415,0.4668162092819,1.62615810673307,1.42236701089599,1.70136031748784,1229588.65739003,1229589.13072748,1229589.13072748,1229589.93048978,0.8,1229591.58091588,1229591.58091588,1229593.18065355,1.6,1229594.74079824,1229595.64132875,0.900530508486554,77,Longer,Ring,77,L,Ring
231,Temporal,2314,1,3,68,1200,10,5,1,l,l,-1600,0,-1600,-400,S,=,L,0.303112345777022,0.38962587876998,1.83917451412739,1.53418288604303,1.90904529446688,1229597.49083885,1229597.81101316,1229597.81101316,1229599.41072484,1.6,1229601.28117374,1229601.28117374,1229603.68062243,2.4,1229605.35745926,1229605.69754131,0.340082048438489,77,Longer,Ring,77,L,Ring
231,Temporal,2314,1,3,69,1600,5,5,2,r,r,0,1600,0,1600,=,L,S,0.211017416920908,0.302563996863077,1.80000967011219,1.92092300418257,1.38718700093303,1229607.77419859,1229608.00117634,1229608.00117634,1229611.20077522,3.2,1229613.04108733,1229613.04108733,1229616.24094126,3.2,1229618.30761208,1229618.7053445,0.397732424084097,66,Equals to,Index,66,=,Index
231,Temporal,2314,1,3,70,800,5,5,1,l,l,-1600,-400,-1600,-800,=,L,S,0.479198198893177,0.284719520369477,1.27356736213339,1.15066839587458,1.37744807812417,1229620.24098209,1229620.73129254,1229620.73129254,1229623.1311618,2.4,1229624.43103904,1229624.43103904,1229626.03103559,1.6,1229627.32427163,1229627.67347345,0.349201812176034,77,Shorter,Ring,77,S,Ring
231,Temporal,2314,1,3,71,800,2.5,3.33333333333333,1,r,r,0,400,0,800,S,=,L,0.434888885805781,0.231362080379168,1.29247836705018,1.02725331654034,1.48401898887365,1229629.19103355,1229629.64143297,1229629.64143297,1229631.2410529,1.6,1229632.56146854,1229632.56146854,1229634.96129577,2.4,1229636.14110268,1229636.68136999,0.540267309173942,77,Longer,Ring,77,L,Ring
231,Temporal,2314,1,3,72,1200,2.5,5,1,m,m,-800,0,-800,400,S,=,L,0.354959299838863,0.361518521716394,1.6046857496736,1.13208382819956,1.05294934947314,1229638.32440124,1229638.69145661,1229638.69145661,1229641.8914982,3.2,1229643.5317321,1229643.5317321,1229645.93154297,2.4,1229647.20773287,1229649.08956251,1.88182963733561,66,Shorter,Index,66,S,Index
231,Temporal,2314,1,3,73,1200,10,5,1,l,l,-1600,0,-1600,-400,L,S,=,0.392188941100538,0.213357027919647,1.03469186354885,1.53548574652266,1.50089397171439,1229654.37452241,1229654.78159752,1229654.78159752,1229656.38149078,1.6,1229657.441903,1229657.441903,1229659.84178285,2.4,1229661.52448811,1229661.92139513,0.396907018031925,66,Longer,Index,66,L,Index
231,Temporal,2314,1,3,74,800,15,5,1,r,r,0,1200,0,800,S,=,L,0.486607291864403,0.262277244099405,1.24865392307622,1.03320356843851,1.86540667001684,1229663.57452651,1229664.0720502,1229664.0720502,1229664.87153276,0.8,1229666.15197549,1229666.15197549,1229667.75187452,1.6,1229668.94118959,1229669.75356267,0.81237308261916,77,Longer,Ring,77,L,Ring
231,Temporal,2314,1,3,75,1200,5,5,1,r,r,0,1600,0,1200,L,S,=,0.483835804324506,0.418937890527076,1.22203599426783,1.77960211712247,1.8851198005711,1229671.77461082,1229672.27200779,1229672.27200779,1229675.47185112,3.2,1229676.73228959,1229676.73228959,1229679.13177453,2.4,1229681.05785186,1229681.55320472,0.49535285984166,78,Shorter,Middle,78,S,Middle
231,Temporal,2314,1,3,76,400,10,5,2,m,m,-800,0,-800,-400,S,=,L,0.379774775359724,0.358402506100305,1.94188521126118,1.43054718593291,1.33877535559959,1229683.59132275,1229683.9823321,1229683.9823321,1229684.78185637,0.8,1229686.75243982,1229686.75243982,1229687.55189094,0.8,1229689.14133645,1229689.48943021,0.348093761596829,78,Equals to,Middle,66,S,Index
231,Temporal,2314,1,3,77,1600,10,20,2,m,m,-800,800,-800,800,L,S,=,0.283430891272221,0.357575442597039,1.01449363365503,1.56409522781822,1.10420023162714,1229690.974758,1229691.27204949,1229691.27204949,1229692.87201846,1.6,1229693.92231418,1229693.92231418,1229694.72206622,0.8,1229696.44143831,1229696.84954026,0.408101952401921,78,Shorter,Middle,78,S,Middle
231,Temporal,2314,1,3,78,400,5,5,2,r,r,0,400,0,400,=,L,S,0.300613270012623,0.281081322742495,1.74968251083833,1.97465835700284,1.73149622332073,1229698.10812348,1229698.4223376,1229698.4223376,1229699.22212172,0.8,1229701.00226354,1229701.00226354,1229701.80219362,0.8,1229703.92475232,1229704.30547487,0.380722549278289,66,Equals to,Index,66,=,Index
231,Temporal,2314,1,3,79,1600,15,20,2,l,l,-1600,-400,-1600,0,S,=,L,0.438902937287414,0.309926618116637,1.74615976471511,1.05125691346633,1.39831787172325,1229706.19146147,1229706.6426472,1229706.6426472,1229707.44237518,0.8,1229709.22275311,1229709.22275311,1229710.02220648,0.8,1229711.2248598,1229713.42539938,2.20053958543576,78,Equals to,Middle,66,S,Index
231,Temporal,2314,1,3,80,800,2.5,3.33333333333333,1,l,l,-1600,-1200,-1600,-800,L,S,=,0.33350219939861,0.493823218058441,1.02608152592749,1.36181726535846,1.00867042799002,1229714.97485232,1229715.32284723,1229715.32284723,1229716.92266734,1.6,1229717.98289446,1229717.98289446,1229720.38242881,2.4,1229721.89156021,1229722.76158112,0.870020909933373,66,Longer,Index,66,L,Index
231,Temporal,2314,1,3,81,1200,10,7.5,1,m,m,-800,0,-800,400,L,S,=,0.36831819476475,0.236073213682973,1.50906794446569,1.26363378032872,1.74952687917952,1229723.92495732,1229724.31273041,1229724.31273041,1229725.11255142,0.8,1229726.65284679,1229726.65284679,1229728.25259857,1.6,1229729.67498619,1229729.99339051,0.318404319696128,66,Longer,Index,66,L,Index
231,Temporal,2314,1,3,82,800,5,5,1,l,l,-1600,-1200,-1600,-800,=,L,S,0.390934138188308,0.291752817402487,1.58853138672002,1.87464473857805,1.89737857727338,1229731.89164843,1229732.29286762,1229732.29286762,1229733.09288401,0.8,1229734.71278514,1229734.71278514,1229736.31267166,1.6,1229738.32497163,1229738.70521329,0.380241666687652,78,Longer,Middle,78,L,Middle
231,Temporal,2314,1,3,83,400,5,5,2,r,r,0,400,0,400,=,L,S,0.469850975163609,0.252551684237875,1.87597373125961,1.34050256891786,1.90360249540908,1229740.74169652,1229741.22310567,1229741.22310567,1229742.02291449,0.8,1229743.93293177,1229743.93293177,1229744.73278326,0.8,1229746.20842444,1229746.54540698,0.336982536129653,66,Equals to,Index,77,S,Ring
231,Temporal,2314,1,3,84,1600,6.66666666666667,5,2,m,m,-800,800,-800,800,=,L,S,0.201900958201739,0.37768704394537,1.01407637076911,1.72245809979212,1.72797567668039,1229748.59178471,1229748.81307142,1229748.81307142,1229751.21284509,2.4,1229752.2531613,1229752.2531613,1229755.45300945,3.2,1229757.32509417,1229757.72937226,0.404278089292347,78,Longer,Middle,78,L,Middle
231,Temporal,2314,1,3,85,1200,5,5,1,r,r,0,1600,0,1200,L,S,=,0.254996275560406,0.467020237470264,1.02758323380428,1.74757143891009,1.0441049321078,1229759.62514909,1229759.89338681,1229759.89338681,1229763.0931785,3.2,1229764.15350026,1229764.15350026,1229766.5533384,2.4,1229768.45851322,1229768.82547978,0.366966552566737,78,Shorter,Middle,78,S,Middle
231,Temporal,2314,1,3,86,1600,20,20,2,r,r,0,1600,0,1600,L,S,=,0.306722399252117,0.391651419384601,1.10556913004088,1.85495414565068,1.27514592271359,1229770.00857408,1229770.3334276,1229770.3334276,1229771.1333609,0.8,1229772.26350236,1229772.26350236,1229773.06327621,0.8,1229775.05854864,1229775.44166662,0.383117978693917,77,Equals to,Ring,78,S,Middle
231,Temporal,2314,1,3,87,800,1.66666666666667,5,1,l,l,-1600,-1200,-1600,-800,=,L,S,0.499848189579272,0.484467625598495,1.5229994879105,1.32741969876307,1.42288996156808,1229776.85858357,1229777.37357503,1229777.37357503,1229779.77340644,2.4,1229781.33357517,1229781.33357517,1229782.93339047,1.6,1229784.40866516,1229785.30565484,0.896989686414599,77,Shorter,Ring,77,S,Ring
231,Temporal,2314,1,3,88,400,2.5,5,2,l,l,-1600,-1200,-1600,-1200,=,L,S,0.2380836965058,0.456526985052835,1.07257086707512,1.47454605634196,1.61803352082346,1229786.87531767,1229787.13378376,1229787.13378376,1229788.73356473,1.6,1229789.83361239,1229789.83361239,1229790.63342955,0.8,1229792.24200513,1229792.62548754,0.383482410106808,77,Shorter,Ring,77,S,Ring
231,Temporal,2314,1,3,89,1200,5,5,1,m,m,-800,800,-800,400,S,=,L,0.439015376801909,0.305441911071672,1.28453576284717,1.40655579191614,1.08105404266968,1229794.39206258,1229794.84374909,1229794.84374909,1229798.04357928,3.2,1229799.35406256,1229799.35406256,1229801.75359017,2.4,1229803.3087835,1229803.68938812,0.380604620091617,66,Shorter,Index,78,=,Middle
231,Temporal,2314,1,3,90,1200,20,7.5,1,l,l,-1600,0,-1600,-400,S,=,L,0.359331562962104,0.470437180151859,1.22140880153051,1.63183932637431,1.57215966627375,1229804.92542825,1229805.30416981,1229805.30416981,1229806.10366232,0.8,1229807.36417874,1229807.36417874,1229808.96367484,1.6,1229810.7420956,1229811.10555033,0.363454731181264,77,Longer,Ring,77,L,Ring
231,Temporal,2314,1,3,91,400,5,5,2,m,m,-800,0,-800,-400,=,L,S,0.321995746840191,0.485313684132602,1.52058463664808,1.44113667112051,1.36213539105159,1229812.82551571,1229813.16422788,1229813.16422788,1229814.76395593,1.6,1229816.31416793,1229816.31416793,1229817.11394787,0.8,1229818.69220631,1229819.12161257,0.429406262002885,77,Shorter,Ring,77,S,Ring
231,Temporal,2314,1,3,92,800,1.25,3.33333333333333,1,l,l,-1600,-1200,-1600,-800,S,=,L,0.426818778483867,0.229906096135442,1.39261157331745,1.94631719845958,1.65884943318631,1229820.64219171,1229821.08437766,1229821.08437766,1229824.28390148,3.2,1229825.70448695,1229825.70448695,1229828.10403958,2.4,1229830.20889001,1229830.5934147,0.384524696273729,66,Shorter,Index,66,S,Index
231,Temporal,2314,1,3,93,1200,5,5,1,l,l,-1600,0,-1600,-400,L,S,=,0.323263485699142,0.361743827257337,1.52286016372125,1.79572414633369,1.13836812093244,1229832.40896469,1229832.74444735,1229832.74444735,1229835.94429839,3.2,1229837.49465347,1229837.49465347,1229839.89413841,2.4,1229841.8422943,1229842.21736624,0.375071940012276,78,Shorter,Middle,78,S,Middle
231,Temporal,2314,1,3,94,800,2.5,3.33333333333333,1,r,r,0,400,0,800,=,L,S,0.355334177693844,0.433545881227252,1.66782301574205,1.62002832249401,1.61359945489991,1229843.50898952,1229843.88465329,1229843.88465329,1229845.48442625,1.6,1229847.1746084,1229847.1746084,1229849.57442569,2.4,1229851.34235269,1229851.84166521,0.499312520958483,78,Longer,Middle,78,L,Middle
231,Temporal,2314,1,3,95,1200,10,5,1,l,l,-1600,0,-1600,-400,=,L,S,0.439440588488733,0.229345610942431,1.68468467527448,1.52481724730567,1.67896297608683,1229853.60909198,1229854.06477023,1229854.06477023,1229855.66446074,1.6,1229857.37496892,1229857.37496892,1229859.77443204,2.4,1229861.44247899,1229861.7692608,0.326781812822446,78,Longer,Middle,78,L,Middle
231,Temporal,2314,1,3,96,1200,3.33333333333333,7.5,1,r,r,0,800,0,1200,S,=,L,0.300744430633037,0.468074356704306,1.72122291103747,1.71674738057947,1.31831562336849,1229863.60912021,1229863.92475998,1229863.92475998,1229866.32463373,2.4,1229868.07491111,1229868.07491111,1229869.67476009,1.6,1229871.5424803,1229871.88144756,0.33896726090461,66,Shorter,Index,66,S,Index
