Subject,Task,SequenceOrder,ListNo,RunNo,TrialNo,Aud_Probe_Dist,Aud_Standard_Vel,Aud_Probe_Vel,Main_Control,Aud_Std_StartCode,Aud_Probe_StartCode,Aud_Std_StartPt,Aud_Std_EndPt,Aud_Probe_StartPt,Aud_Probe_EndPt,RespIndex,RespMiddle,RespRing,ISI_Cross_Std,ISI_Cross_Probe,ISI_Std_Probe,ISI_Probe_Response,ITI,TrialOnset,StdOnset,StdOnsetByStop,StdOffset,StdDur,ProbeOnset,ProbeOnsetByStop,ProbeOffset,ProbeDur,RespWinStart,RespTime,RT,CorrectKC,CorrectResponse,CorrectFinger,SubjRespKC,SubjResponse,SubjRespFinger
223,Spatial,4132,4,1,1,1600,7.5,20,2,m,m,-800,400,-800,800,=,L,S,0.499385397051014,0.279546991352503,1.51831687864224,1.90540363960627,1.46441659879206,281726.122994265,281726.633402325,281726.633402325,281728.232995631,1.6,281729.793269911,281729.793269911,281730.593222772,0.8,281732.639715593,281733.134786952,0.495071358629502,78,Longer,Middle,77,S,Ring
223,Spatial,4132,4,1,2,800,1.66666666666667,5,1,m,m,-800,-400,-800,0,=,L,S,0.268977565666775,0.270344489107277,1.19594118597946,1.73717722430848,1.39620631048866,281734.756439943,281735.043458061,281735.043458061,281737.44327086,2.4,281738.663229547,281738.663229547,281740.263237972,1.6,281742.139769972,281742.638756879,0.498986906779464,78,Longer,Middle,66,=,Index
223,Spatial,4132,4,1,3,1200,2.5,5,1,m,m,-800,0,-800,400,L,S,=,0.283314246046605,0.387152637018235,1.30816956154406,1.85550678607041,1.75095740864558,281744.189820563,281744.483498213,281744.483498213,281747.683512219,3.2,281749.033508382,281749.033508382,281751.433381492,2.4,281753.439812382,281753.902612164,0.462799781642389,66,Longer,Index,66,L,Index
223,Spatial,4132,4,1,4,1200,10,7.5,1,r,r,0,800,0,1200,S,=,L,0.387810870376137,0.405475760273418,1.26536825491613,1.60967864150102,1.72291807557303,281755.80652518,281756.213670554,281756.213670554,281757.013565029,0.8,281758.303822377,281758.303822377,281759.903618751,1.6,281761.656548887,281762.230573023,0.574024135887157,77,Longer,Ring,77,L,Ring
223,Spatial,4132,4,1,5,1600,7.5,20,2,r,r,0,1200,0,1600,S,=,L,0.297758663349389,0.270678223478747,1.63698542555444,1.22426804079893,1.29474351004514,281764.106616994,281764.423816821,281764.423816821,281766.023673506,1.6,281767.693861983,281767.693861983,281768.493753892,0.8,281769.856595019,281770.878632844,1.02203782513971,77,Longer,Ring,66,S,Index
223,Spatial,4132,4,1,6,1200,6.66666666666667,7.5,1,m,m,-800,800,-800,400,L,S,=,0.425343585772009,0.487206734565898,1.62234702912395,1.64882108853016,1.36777466388249,281772.323319861,281772.763963671,281772.763963671,281775.163891317,2.4,281776.813906151,281776.813906151,281778.413752891,1.6,281780.206637333,281780.68676011,0.480122777400538,78,Shorter,Middle,77,=,Ring
223,Spatial,4132,4,1,7,800,5,5,1,r,r,0,1200,0,800,L,S,=,0.229919870116972,0.356064046818117,1.84937610671768,1.77308010379478,1.39449165396272,281782.206717212,281782.45408675,281782.45408675,281784.853905003,2.4,281786.734136449,281786.734136449,281788.333958487,1.6,281790.256695943,281790.694591853,0.43789590994129,78,Shorter,Middle,78,S,Middle
223,Spatial,4132,4,1,8,800,3.75,3.33333333333333,1,r,r,0,1200,0,800,S,=,L,0.465789718483858,0.37596384851903,1.42650342677939,1.34462853419532,1.91743434790383,281792.240071975,281792.724427051,281792.724427051,281795.923983593,3.2,281797.384209624,281797.384209624,281799.784196298,2.4,281801.290120641,281801.782610021,0.492489379830658,66,Shorter,Index,77,L,Ring
223,Spatial,4132,4,1,9,800,2.5,3.33333333333333,1,l,l,-1600,-1200,-1600,-800,L,S,=,0.27660737720392,0.454739813266141,1.98463650128673,1.45873086470827,1.28099226700307,281803.856868984,281804.144505288,281804.144505288,281805.744130033,1.6,281807.754536579,281807.754536579,281810.154407764,2.4,281811.756828755,281812.374830376,0.618001620692667,66,Longer,Index,77,=,Ring
223,Spatial,4132,4,1,10,800,2.5,3.33333333333333,1,r,r,0,400,0,800,L,S,=,0.313491119524233,0.452443237476078,1.42317788635988,1.40926946442785,1.12833476468786,281813.806868118,281814.134604371,281814.134604371,281815.734444374,1.6,281817.194511928,281817.194511928,281819.594387926,2.4,281821.140209792,281821.574766151,0.434556359483395,66,Longer,Index,66,L,Index
223,Spatial,4132,4,1,11,400,2.5,5,2,r,r,0,400,0,400,=,L,S,0.268187572971195,0.303590393264951,1.36390233107037,1.66381498389254,1.15513968646061,281822.840305925,281823.124628065,281823.124628065,281824.724503357,1.6,281826.114728431,281826.114728431,281826.914549443,0.8,281828.723596539,281829.494785682,0.771189143066294,66,Equals to,Index,77,S,Ring
223,Spatial,4132,4,1,12,1200,10,7.5,1,r,r,0,800,0,1200,=,L,S,0.280136974931155,0.358918208131904,1.90203498692874,1.01647523949879,1.1555541313038,281830.790294516,281831.084719314,281831.084719314,281831.884568556,0.8,281833.824637625,281833.824637625,281835.424580285,1.6,281836.590313828,281839.09483361,2.50451978162164,78,Longer,Middle,66,=,Index
223,Spatial,4132,4,1,13,400,1.66666666666667,1.25,2,l,l,-1600,-1200,-1600,-1200,=,L,S,0.495959927318182,0.283079405497109,1.2968812643272,1.75192793101298,1.73144649943969,281840.407066822,281840.915129819,281840.915129819,281843.314956092,2.4,281844.635031038,281844.635031038,281847.834914157,3.2,281849.740384757,281850.142772039,0.402387281355914,66,Equals to,Index,78,L,Middle
223,Spatial,4132,4,1,14,1200,20,7.5,1,m,m,-800,800,-800,400,S,=,L,0.207645145914324,0.409541382809552,1.10332586330207,1.78378040485685,1.57117356345812,281852.02376727,281852.245265717,281852.245265717,281853.045094107,0.8,281854.175023197,281854.175023197,281855.77504702,1.6,281857.707093834,281858.334785926,0.627692091511562,66,Shorter,Index,77,L,Ring
223,Spatial,4132,4,1,15,1200,5,5,1,r,r,0,1600,0,1200,L,S,=,0.275862346840313,0.410865788616886,1.69154654832608,1.20462931251249,1.17633405055298,281860.057179777,281860.345347329,281860.345347329,281863.54525098,3.2,281865.26542685,281865.26542685,281867.665270767,2.4,281869.007162229,281870.054646402,1.04748417326482,78,Shorter,Middle,66,L,Index
223,Spatial,4132,4,1,16,400,2.5,1.25,2,r,r,0,800,0,400,L,S,=,0.401631417064407,0.379331706486721,1.98255608376219,1.52282756528227,1.29636540493123,281871.390544549,281871.805560804,281871.805560804,281875.005375271,3.2,281877.025346213,281877.025346213,281880.225219066,3.2,281881.890586895,281882.350976811,0.460389915795531,78,Shorter,Middle,66,L,Index
223,Spatial,4132,4,1,17,800,7.5,3.33333333333333,1,m,m,-800,400,-800,0,S,=,L,0.239695350175065,0.393847138943774,1.67184317992918,1.60453689367717,1.07156581144402,281883.807283556,281884.065689972,281884.065689972,281885.665550506,1.6,281887.365405163,281887.365405163,281889.765453431,2.4,281891.507297928,281892.238704716,0.731406788050663,66,Shorter,Index,77,L,Ring
223,Spatial,4132,4,1,18,800,5,5,1,m,m,-800,400,-800,0,S,=,L,0.257281066267445,0.49795423489644,1.02990824252203,1.60792380914384,1.41368272545243,281893.457387849,281893.725604074,281893.725604074,281896.125578878,2.4,281897.18593015,281897.18593015,281898.785492659,1.6,281900.540685092,281902.182707416,1.64202232396929,66,Shorter,Index,78,=,Middle
223,Spatial,4132,4,1,19,1200,10,5,1,r,r,0,1600,0,1200,=,L,S,0.226892434576362,0.291437502124009,1.46104016376829,1.49428013526079,1.47207315206789,281903.757405237,281903.995888875,281903.995888875,281905.59577764,1.6,281907.085882543,281907.085882543,281909.485938189,2.4,281911.140818475,281911.646828261,0.506009785982315,77,Shorter,Ring,78,L,Middle
223,Spatial,4132,4,1,20,1600,6.66666666666667,5,2,m,m,-800,800,-800,800,S,=,L,0.272212732983546,0.386541950556835,1.83010852565495,1.68817195552669,1.90408596750588,281913.274171962,281913.566145832,281913.566145832,281915.966007713,2.4,281917.816140538,281917.816140538,281921.016105141,3.2,281922.840815723,281924.038789472,1.19797374942573,78,Equals to,Middle,77,L,Ring
223,Spatial,4132,4,1,21,800,1.25,3.33333333333333,1,m,m,-800,-400,-800,0,=,L,S,0.487787194477396,0.348943826818116,1.73880479053941,1.35840327044889,1.84528843750809,281926.090909878,281926.59595958,281926.59595958,281929.795953697,3.2,281931.566247847,281931.566247847,281933.966152395,2.4,281935.457416401,281937.174703082,1.71728668099968,78,Longer,Middle,66,=,Index
223,Spatial,4132,4,1,22,1200,5,5,1,m,m,-800,0,-800,400,=,L,S,0.218545140717887,0.240108971041547,1.2440977468316,1.06514670134838,1.42540573106625,281939.17428251,281939.406369033,281939.406369033,281941.006248174,1.6,281942.286267441,281942.286267441,281944.686158195,2.4,281945.907624056,281946.654979844,0.747355788189452,78,Longer,Middle,78,L,Middle
223,Spatial,4132,4,1,23,800,3.75,3.33333333333333,1,m,m,-800,400,-800,0,L,S,=,0.410503470783148,0.429822202473857,1.3527306786288,1.33206869646428,1.6600892054959,281948.241002622,281948.666603424,281948.666603424,281951.866551986,3.2,281953.246756485,281953.246756485,281955.646320021,2.4,281957.124422554,281958.478850797,1.35442824254278,78,Shorter,Middle,78,S,Middle
223,Spatial,4132,4,1,24,400,1.25,1.25,2,r,r,0,400,0,400,S,=,L,0.483194015965819,0.433162150942412,1.94281918901882,1.46786322011653,1.76973876001702,281960.291085935,281960.786727472,281960.786727472,281963.986647483,3.2,281965.966624661,281965.966624661,281969.166555579,3.2,281970.774468703,281971.40687787,0.632409166486468,78,Equals to,Middle,77,L,Ring
223,Spatial,4132,4,1,25,400,2.5,1.25,2,r,r,0,800,0,400,=,L,S,0.476911467840801,0.388465261117084,1.03140052006288,1.1652608162316,1.91808596699189,281979.457850125,281979.947122456,281979.947122456,281983.14669568,3.2,281984.207078711,281984.207078711,281987.406983324,3.2,281988.724545792,281989.96690252,1.2423567281221,77,Shorter,Ring,66,=,Index
223,Spatial,4132,4,1,26,1200,5,5,1,m,m,-800,800,-800,400,S,=,L,0.448271161563492,0.355274574956815,1.70123002120407,1.05180292374704,1.27489557523304,281992.041310015,281992.507054715,281992.507054715,281995.707002636,3.2,281997.437365258,281997.437365258,281999.837205005,2.4,282001.041281143,282001.894847147,0.853566004720051,66,Shorter,Index,77,L,Ring
223,Spatial,4132,4,1,27,1600,10,20,2,l,l,-1600,0,-1600,0,L,S,=,0.295090062728769,0.279166158491822,1.01730891606228,1.46314176460499,1.37686953039217,282003.30804097,282003.617456212,282003.617456212,282005.217008135,1.6,282006.257217522,282006.257217522,282007.057067086,0.8,282008.674721038,282009.614815414,0.940094375459012,77,Equals to,Ring,78,S,Middle
223,Spatial,4132,4,1,28,800,3.75,3.33333333333333,1,m,m,-800,400,-800,0,L,S,=,0.413660498885977,0.39663036717446,1.92213723526711,1.57541816970858,1.41078852705179,282011.158044788,282011.587550393,282011.587550393,282014.787441211,3.2,282016.747559132,282016.747559132,282019.147408502,2.4,282020.858132259,282021.318793296,0.460661036951933,78,Shorter,Middle,77,=,Ring
223,Spatial,4132,4,1,29,400,1.25,1.25,2,r,r,0,400,0,400,S,=,L,0.497797236760312,0.356917279286138,1.48125796049288,1.38389638959547,1.05155623033573,282022.891477121,282023.40750371,282023.40750371,282026.60738715,3.2,282028.117588062,282028.117588062,282031.317520263,3.2,282032.841544473,282033.3908291,0.549284627370071,78,Equals to,Middle,77,L,Ring
223,Spatial,4132,4,1,30,1600,15,20,2,r,r,0,1200,0,1600,=,L,S,0.364845735771334,0.35021842072964,1.78577981704034,1.11644482999309,1.5867705238929,282034.641506795,282035.017509016,282035.017509016,282035.81743076,0.8,282037.627775134,282037.627775134,282038.427698482,0.8,282039.691513115,282040.342712626,0.651199511368759,78,Longer,Middle,66,=,Index
223,Spatial,4132,4,1,31,400,5,5,2,l,l,-1600,-1200,-1600,-1200,S,=,L,0.244645062736002,0.319236556001103,1.53087149672381,1.31240145776507,1.01421211786521,282042.074890302,282042.337749772,282042.337749772,282043.137556027,0.8,282044.707867564,282044.707867564,282045.507673177,0.8,282046.974956788,282047.606937154,0.631980366422795,78,Equals to,Middle,66,S,Index
223,Spatial,4132,4,1,32,400,3.33333333333333,1.25,2,l,l,-1600,-800,-1600,-1200,L,S,=,0.219095409170597,0.354385036599089,1.09223620056894,1.48560996990105,1.41783939294146,282048.791653754,282049.027905893,282049.027905893,282051.427775154,2.4,282052.548174815,282052.548174815,282055.748039007,3.2,282057.374946827,282057.886806883,0.511860055790748,78,Shorter,Middle,66,L,Index
223,Spatial,4132,4,1,33,1200,5,5,1,l,l,-1600,-800,-1600,-400,=,L,S,0.427310108033543,0.283399117533553,1.60549124773977,1.66861460579106,1.14905051828381,282059.458371429,282059.898018873,282059.898018873,282061.497894486,1.6,282063.128030814,282063.128030814,282065.528097367,2.4,282067.341695362,282068.262811715,0.921116353012621,78,Longer,Middle,66,=,Index
223,Spatial,4132,4,1,34,1600,20,20,2,r,r,0,1600,0,1600,S,=,L,0.303036713284244,0.247667479538868,1.88274563254411,1.43096431796521,1.54056532849769,282069.591730811,282069.908308923,282069.908308923,282070.708183509,0.8,282072.618351892,282072.618351892,282073.418284222,0.8,282075.00839058,282075.446947343,0.43855676241219,78,Equals to,Middle,78,=,Middle
223,Spatial,4132,4,1,35,1200,3.33333333333333,7.5,1,m,m,-800,0,-800,400,S,=,L,0.38588490303732,0.382152033033412,1.19382764388091,1.3860531945988,1.62123474171725,282077.141811236,282077.538225778,282077.538225778,282079.938111399,2.4,282081.168443545,282081.168443545,282082.768138866,1.6,282084.308507686,282084.806926824,0.498419138544705,77,Longer,Ring,78,=,Middle
223,Spatial,4132,4,1,36,1200,10,5,1,m,m,-800,800,-800,400,=,L,S,0.245247697990564,0.366599193588383,1.97428089142197,1.70689656316171,1.40701408889894,282086.575203084,282086.838610484,282086.838610484,282088.438438938,1.6,282090.448488111,282090.448488111,282092.848366674,2.4,282094.691837446,282095.33496365,0.643126204202417,77,Shorter,Ring,78,L,Middle
223,Spatial,4132,4,1,37,1600,10,20,2,r,r,0,1600,0,1600,L,S,=,0.283345352643151,0.47829877362971,1.01151429796263,1.56257262024407,1.55351594689055,282096.89192079,282097.188698993,282097.188698993,282098.788505954,1.6,282099.838654755,282099.838654755,282100.638451706,0.8,282102.35861322,282103.6550023,1.29638908000197,77,Equals to,Ring,66,L,Index
223,Spatial,4132,4,1,38,1200,5,5,1,m,m,-800,800,-800,400,=,L,S,0.375160939820899,0.367067138514094,1.80043896179225,1.88928844613233,1.09118064959853,282105.358651959,282105.748700225,282105.748700225,282108.948619274,3.2,282110.778945132,282110.778945132,282113.178574753,2.4,282115.208623098,282116.0628198,0.854196701780893,77,Shorter,Ring,66,=,Index
223,Spatial,4132,4,1,39,1600,6.66666666666667,5,2,l,l,-1600,0,-1600,0,L,S,=,0.334477646474294,0.351110138734208,1.75325369240024,1.59952600870609,1.85234863946914,282117.291650226,282117.638816824,282117.638816824,282120.038806385,2.4,282121.828916484,282121.828916484,282125.028849648,3.2,282126.775418634,282127.175043132,0.399624498095363,77,Equals to,Ring,66,L,Index
223,Spatial,4132,4,1,40,1200,6.66666666666667,7.5,1,r,r,0,1600,0,1200,S,=,L,0.304551220532619,0.332129911231563,1.30714628536558,1.34903381614053,1.66441546025887,282129.175458891,282129.498870732,282129.498870732,282131.898933436,2.4,282133.229135785,282133.229135785,282134.82896071,1.6,282136.325421711,282136.895015248,0.569593537249602,66,Shorter,Index,77,L,Ring
223,Spatial,4132,4,1,41,800,5,5,1,l,l,-1600,-400,-1600,-800,=,L,S,0.414330571903828,0.281023016247895,1.74104331268521,1.29678686976619,1.32513753839113,282138.708794406,282139.139346789,282139.139346789,282141.539011378,2.4,282143.319054064,282143.319054064,282144.919051901,1.6,282146.375544517,282147.118979105,0.743434588308446,77,Shorter,Ring,77,S,Ring
223,Spatial,4132,4,1,42,800,3.75,3.33333333333333,1,l,l,-1600,-400,-1600,-800,L,S,=,0.497491726225194,0.298392654154235,1.57687538407514,1.88541329896162,1.61590756773501,282148.608855872,282149.11937493,282149.11937493,282152.31929045,3.2,282153.929618849,282153.929618849,282156.329499337,2.4,282158.358878488,282158.814971901,0.456093412474729,78,Shorter,Middle,78,S,Middle
223,Spatial,4132,4,1,43,1600,5,5,2,l,l,-1600,-400,-1600,0,S,=,L,0.389753872548066,0.310733791811745,1.42452820833943,1.26689242703728,1.41688712499245,282160.592308576,282160.999610501,282160.999610501,282163.399305245,2.4,282164.849797818,282164.849797818,282168.049683182,3.2,282169.458574176,282171.078774895,1.62020071950974,77,Longer,Ring,77,L,Ring
223,Spatial,4132,4,1,44,800,15,5,1,r,r,0,1200,0,800,=,L,S,0.223558199397344,0.283218490516487,1.41915399176646,1.73275477863195,1.72799993272458,282172.64233671,282172.879685351,282172.879685351,282173.679473641,0.8,282175.129731386,282175.129731386,282176.729574918,1.6,282178.608996383,282179.166905664,0.557909280993044,77,Shorter,Ring,78,L,Middle
223,Spatial,4132,4,1,45,400,10,5,2,r,r,0,800,0,400,=,L,S,0.306704159814304,0.39530981948792,1.09691173089034,1.48047765071802,1.35817448945074,282181.04241999,282181.359792088,282181.359792088,282182.159806864,0.8,282183.289878711,282183.289878711,282184.089709026,0.8,282185.725771101,282187.662980008,1.93720890744589,77,Shorter,Ring,78,L,Middle
223,Spatial,4132,4,1,46,1200,20,7.5,1,l,l,-1600,0,-1600,-400,L,S,=,0.346792628329914,0.210312541616789,1.71399189891741,1.0421217219495,1.58463884954183,282189.175809528,282189.539976395,282189.539976395,282190.339931502,0.8,282192.090023778,282192.090023778,282193.690005896,1.6,282194.875783479,NaN,NaN,78,Shorter,Middle,999,Missed,Missed
223,Spatial,4132,4,1,47,400,5,5,2,m,m,-800,0,-800,-400,S,=,L,0.392724753846865,0.470239492671576,1.18936831219745,1.0612664992102,1.02751162838053,282199.559186074,282199.970290146,282199.970290146,282201.57015036,1.6,282202.800061934,282202.800061934,282203.599937161,0.8,282204.809219095,282205.758829919,0.949610823998228,66,Shorter,Index,66,S,Index
223,Spatial,4132,4,1,48,400,3.33333333333333,1.25,2,r,r,0,800,0,400,=,L,S,0.219295980309469,0.461753522004924,1.7635992549374,1.42902917998299,1.66208479159064,282206.942531501,282207.180358137,282207.180358137,282209.580243117,2.4,282211.370333647,282211.370333647,282214.570233127,3.2,282216.159219245,282216.742970102,0.583750857331324,77,Shorter,Ring,78,L,Middle
223,Spatial,4132,4,1,49,1200,5,5,1,m,m,-800,0,-800,400,S,=,L,0.410842614479896,0.491380777092699,1.78137219505845,1.71486416094143,1.62850053541921,282225.059360226,282225.480551003,282225.480551003,282227.080538255,1.6,282228.890756554,282228.890756554,282231.290611058,2.4,282233.159319656,282233.750933695,0.591614039090928,77,Longer,Ring,77,L,Ring
223,Spatial,4132,4,1,50,1200,10,5,1,r,r,0,1600,0,1200,S,=,L,0.232931460882348,0.34039895703074,1.78960137001207,1.97720763668773,1.03601890533361,282235.542709354,282235.79060629,282235.79060629,282237.390412289,1.6,282239.210488197,282239.210488197,282241.610500856,2.4,282243.742725651,282244.278979823,0.536254172795452,66,Shorter,Index,77,L,Ring
223,Spatial,4132,4,1,51,1200,10,7.5,1,l,l,-1600,-800,-1600,-400,S,=,L,0.275391827284282,0.468998731284645,1.32631961843425,1.92449821438911,1.86358666213744,282245.459468251,282245.75075368,282245.75075368,282246.550602601,0.8,282247.900723877,282247.900723877,282249.500649855,1.6,282251.559476079,282252.398978758,0.839502679707948,77,Longer,Ring,77,L,Ring
223,Spatial,4132,4,1,52,1600,5,5,2,l,l,-1600,0,-1600,0,L,S,=,0.273873848321809,0.210761085888146,1.99243685111532,1.99586326033404,1.83166090299137,282254.426191764,282254.710963305,282254.710963305,282257.910833271,3.2,282259.930939591,282259.930939591,282263.130848695,3.2,282265.276181787,282266.086947972,0.810766184644308,77,Equals to,Ring,66,L,Index
223,Spatial,4132,4,1,53,800,2.5,3.33333333333333,1,m,m,-800,-400,-800,0,S,=,L,0.265352461665887,0.404586901708617,1.01333551133469,1.38266500370195,1.04747113350197,282268.076276167,282268.361230565,282268.361230565,282269.961118368,1.6,282271.001086833,282271.001086833,282273.400940695,2.4,282274.926300915,282275.599007887,0.672706972167362,77,Longer,Ring,77,L,Ring
223,Spatial,4132,4,1,54,1200,20,7.5,1,l,l,-1600,0,-1600,-400,L,S,=,0.251571796380876,0.230914966215688,1.5718073640884,1.18011944672794,1.89085238223414,282276.809643698,282277.081453548,282277.081453548,282277.880956645,0.8,282279.481189079,282279.481189079,282281.081045443,1.6,282282.409611104,282285.063028642,2.65341753751272,78,Shorter,Middle,77,=,Ring
223,Spatial,4132,4,1,55,800,5,5,1,l,l,-1600,-1200,-1600,-800,=,L,S,0.202291527400042,0.404278765828725,1.09027851177426,1.68332966893467,1.2538044995815,282287.093047704,282287.311398441,282287.311398441,282288.111252174,0.8,282289.231400648,282289.231400648,282290.831373142,1.6,282292.659738381,282293.126838116,0.467099735338707,78,Longer,Middle,78,L,Middle
223,Spatial,4132,4,1,56,800,15,5,1,l,l,-1600,-400,-1600,-800,L,S,=,0.347447574865153,0.406518646006329,1.63576861254706,1.35907408345342,1.53542158547785,282294.526431852,282294.891608925,282294.891608925,282295.69148287,0.8,282297.361641192,282297.361641192,282298.961573265,1.6,282300.459717194,282301.478982326,1.01926513202488,78,Shorter,Middle,66,L,Index
223,Spatial,4132,4,1,57,1200,2.5,5,1,l,l,-1600,-800,-1600,-400,S,=,L,0.336416498385536,0.357234068864818,1.52367999387356,1.1555647733004,1.2125987607767,282303.159812408,282303.511566477,282303.511566477,282306.711470127,3.2,282308.261697525,282308.261697525,282310.661564539,2.4,282311.959843859,282312.446979423,0.487135564151686,77,Longer,Ring,78,=,Middle
223,Spatial,4132,4,1,58,1200,6.66666666666667,7.5,1,r,r,0,1600,0,1200,=,L,S,0.404689265047571,0.493920171107131,1.02778431538574,1.84530165310655,1.38630688897834,282313.809846445,282314.231874473,282314.231874473,282316.631747583,2.4,282317.681823561,282317.681823561,282319.281699815,1.6,282321.276508364,282321.815048573,0.538540209061466,77,Shorter,Ring,66,=,Index
223,Spatial,4132,4,1,59,1200,10,7.5,1,r,r,0,800,0,1200,=,L,S,0.272803380208593,0.382069254440084,1.7137383238031,1.85236180288687,1.50406672872703,282323.343271784,282323.63195262,282323.63195262,282324.431806674,0.8,282326.171891847,282326.171891847,282327.771765535,1.6,282329.776615547,282330.207037694,0.430422146979254,78,Longer,Middle,78,L,Middle
223,Spatial,4132,4,1,60,1600,5,5,2,r,r,0,1600,0,1600,L,S,=,0.344738274617028,0.499266460804495,1.56575513141249,1.8319160810468,1.24184127705333,282331.859977236,282332.221842348,282332.221842348,282335.421851863,3.2,282337.022177971,282337.022177971,282340.222076488,3.2,282342.209936783,282342.662959477,0.453022694215178,77,Equals to,Ring,66,L,Index
223,Spatial,4132,4,1,61,800,5,5,1,l,l,-1600,-1200,-1600,-800,=,L,S,0.496819256315241,0.26855261239481,1.03658784165824,1.1179248057961,1.37738678695497,282344.043380151,282344.552342356,282344.552342356,282345.352141553,0.8,282346.412426098,282346.412426098,282348.011982192,1.6,282349.276696675,NaN,NaN,78,Longer,Middle,999,Missed,Missed
223,Spatial,4132,4,1,62,400,2.5,5,2,r,r,0,400,0,400,=,L,S,0.282553190161237,0.408055902123297,1.58809138616705,1.93381731195577,1.61241121928541,282353.693444985,282353.992306799,282353.992306799,282355.592124345,1.6,282357.212624418,282357.212624418,282358.012128798,0.8,282360.093404757,282360.52695893,0.433554173505399,66,Equals to,Index,77,S,Ring
223,Spatial,4132,4,1,63,1200,3.33333333333333,7.5,1,r,r,0,800,0,1200,S,=,L,0.239222801672089,0.268516272595565,1.67349578808163,1.89354168311547,1.38170772741347,282362.293498046,282362.552464261,282362.552464261,282364.952342825,2.4,282366.65243648,282366.65243648,282368.252273595,1.6,282370.293524621,282371.039032961,0.745508340129163,77,Longer,Ring,66,S,Index
223,Spatial,4132,4,1,64,400,5,5,2,l,l,-1600,-800,-1600,-1200,S,=,L,0.454060659490327,0.45708070519736,1.69630798561038,1.63004606230203,1.67959088719489,282372.576858102,282373.042606331,282373.042606331,282374.642461733,1.6,282376.37258247,282376.37258247,282377.172395783,0.8,282378.960182998,282379.367044507,0.406861509080045,66,Shorter,Index,66,S,Index
223,Spatial,4132,4,1,65,800,5,5,1,l,l,-1600,-400,-1600,-800,L,S,=,0.367200683870947,0.274821922396548,1.53271431586481,1.40732324918086,1.7862196879097,282381.210224542,282381.592729423,282381.592729423,282383.992557621,2.4,282385.562996517,282385.562996517,282387.162836841,1.6,282388.710303538,282389.23907396,0.528770421689842,78,Shorter,Middle,77,=,Ring
223,Spatial,4132,4,1,66,1200,3.33333333333333,7.5,1,m,m,-800,0,-800,400,=,L,S,0.46308454749447,0.371982748293569,1.36968170454108,1.69319423036624,1.46319664827991,282391.176963454,282391.652958745,282391.652958745,282394.05282576,2.4,282395.442948178,282395.442948178,282397.042834698,1.6,282398.87655565,282399.503067831,0.626512181188446,78,Longer,Middle,78,L,Middle
223,Spatial,4132,4,1,67,1600,3.75,5,2,l,l,-1600,-400,-1600,0,L,S,=,0.417516105485929,0.427253459325927,1.66836198173342,1.96909382790287,1.56555193177438,282401.127059105,282401.56306196,282401.56306196,282404.762971064,3.2,282406.463083326,282406.463083326,282409.662996279,3.2,282411.777112235,282412.327030533,0.549918298260309,66,Longer,Index,77,=,Ring
223,Spatial,4132,4,1,68,800,7.5,3.33333333333333,1,l,l,-1600,-400,-1600,-800,S,=,L,0.477104882835758,0.272654706307851,1.61575768946033,1.40721482322465,1.4314837578467,282414.060428861,282414.553330427,282414.553330427,282416.153248385,1.6,282417.793131645,282417.793131645,282420.193133717,2.4,282421.743842363,282422.43889585,0.695053487317637,66,Shorter,Index,77,L,Ring
223,Spatial,4132,4,1,69,400,10,5,2,l,l,-1600,-800,-1600,-1200,=,L,S,0.370181916114045,0.341278483346717,1.59261334968655,1.75244486300047,1.60312413725138,282424.010409905,282424.40333264,282424.40333264,282425.203215567,0.8,282426.813419174,282426.813419174,282427.613325198,0.8,282429.510494401,282430.37504018,0.864545779419132,77,Shorter,Ring,66,=,Index
223,Spatial,4132,4,1,70,800,1.66666666666667,5,1,m,m,-800,-400,-800,0,=,L,S,0.360183998730343,0.376406162522626,1.76335663964459,1.91753863478081,1.11541923951202,282432.127248101,282432.503360679,282432.503360679,282434.903344786,2.4,282436.69358064,282436.69358064,282438.293426417,1.6,282440.36056687,282440.87915126,0.518584389879834,78,Longer,Middle,77,S,Ring
223,Spatial,4132,4,1,71,800,1.66666666666667,5,1,l,l,-1600,-1200,-1600,-800,L,S,=,0.230876862343399,0.442305657702852,1.13263846315598,1.01907530207554,1.60474045594323,282442.143917944,282442.393789418,282442.393789418,282444.793658357,2.4,282445.953702108,282445.953702108,282447.553732668,1.6,282448.727321173,282449.759063784,1.03174261032837,66,Longer,Index,78,S,Middle
223,Spatial,4132,4,1,72,1200,3.33333333333333,7.5,1,l,l,-1600,-800,-1600,-400,L,S,=,0.265681077105705,0.210851506578206,1.71598742942406,1.77871208031088,1.23822028665607,282451.51068175,282451.793852808,282451.793852808,282454.19376666,2.4,282455.943938495,282455.943938495,282457.543765666,1.6,282459.477331478,282459.910919336,0.433587857754901,66,Longer,Index,66,L,Index
223,Spatial,4132,4,1,73,1600,20,20,2,m,m,-800,800,-800,800,S,=,L,0.352869248696071,0.422916249222602,1.41546688373767,1.25027885505665,1.95316024554522,282473.994106864,282474.364260541,282474.364260541,282475.16378834,0.8,282476.603973218,282476.603973218,282477.403949819,0.8,282478.810785112,282479.686994616,0.876209504320286,78,Equals to,Middle,78,=,Middle
223,Spatial,4132,4,1,74,1200,6.66666666666667,7.5,1,r,r,0,1600,0,1200,L,S,=,0.411415899788043,0.332123250272501,1.32199322324512,1.26575177073155,1.05580172080876,282481.82752906,282482.254049601,282482.254049601,282484.654042049,2.4,282486.014181015,282486.014181015,282487.614012998,1.6,282489.027496915,282489.559354174,0.531857258465607,78,Shorter,Middle,78,S,Middle
223,Spatial,4132,4,1,75,1200,10,5,1,r,r,0,1600,0,1200,L,S,=,0.475423897261648,0.212303897656255,1.80804001903894,1.33030035253739,1.83789703396094,282490.760902622,282491.254158353,282491.254158353,282492.854154266,1.6,282494.704294469,282494.704294469,282497.104156031,2.4,282498.594284665,NaN,NaN,78,Shorter,Middle,999,Missed,Missed
223,Spatial,4132,4,1,76,800,7.5,3.33333333333333,1,l,l,-1600,-400,-1600,-800,L,S,=,0.453974729136723,0.256047232645482,1.66176749945804,1.62396773728094,1.24486612639162,282503.494306724,282503.964382254,282503.964382254,282505.564285776,1.6,282507.254564809,282507.254564809,282509.654487002,2.4,282511.427627995,282511.855038807,0.427410812175367,78,Shorter,Middle,66,L,Index
223,Spatial,4132,4,1,77,1200,5,5,1,l,l,-1600,-800,-1600,-400,S,=,L,0.381257261327026,0.451474204019629,1.63158436399837,1.96507765062943,1.70437383666148,282513.261004316,282513.654633333,282513.654633333,282515.25465106,1.6,282516.924761904,282516.924761904,282519.324593309,2.4,282521.444368735,282521.991097098,0.546728363318834,77,Longer,Ring,77,L,Ring
223,Spatial,4132,4,1,78,800,1.25,3.33333333333333,1,m,m,-800,-400,-800,0,L,S,=,0.322766784946722,0.413950338237684,1.62338487330393,1.22535057466972,1.19793564390598,282523.844441429,282524.184969668,282524.184969668,282527.384861128,3.2,282529.034849656,282529.034849656,282531.434713463,2.4,282532.794436713,282533.335136562,0.540699849196244,66,Longer,Index,77,=,Ring
223,Spatial,4132,4,1,79,1200,5,5,1,m,m,-800,800,-800,400,=,L,S,0.302801352688868,0.367506610991022,1.02641298835311,1.43992964765181,1.4769858292088,282534.694477327,282535.015134118,282535.015134118,282538.214738139,3.2,282539.265029697,282539.265029697,282541.664953493,2.4,282543.244546923,282543.735031532,0.490484608802944,77,Shorter,Ring,66,=,Index
223,Spatial,4132,4,1,80,800,15,5,1,m,m,-800,400,-800,0,L,S,=,0.428944122351804,0.436568589623422,1.11374423113939,1.54704083025176,1.23689997951468,282545.36124248,282545.805096282,282545.805096282,282546.604952903,0.8,282547.755121401,282547.755121401,282549.354984181,1.6,282551.061191729,282551.479263028,0.418071298918221,78,Shorter,Middle,66,L,Index
223,Spatial,4132,4,1,81,1600,15,20,2,m,m,-800,400,-800,800,=,L,S,0.286212476221702,0.308025206766984,1.03770899374339,1.63780880019367,1.86321685901042,282552.861244725,282553.165200556,282553.165200556,282553.965211482,0.8,282555.035365827,282555.035365827,282555.835156362,0.8,282557.611291203,282558.215111322,0.603820118703879,78,Longer,Middle,66,=,Index
223,Spatial,4132,4,1,82,800,1.66666666666667,5,1,r,r,0,400,0,800,L,S,=,0.488150807807979,0.446714078507868,1.93507166469611,1.40455333379069,1.33384976144869,282560.227945012,282560.735510444,282560.735510444,282563.135096757,2.4,282565.095338828,282565.095338828,282566.695204175,1.6,282568.244626403,282569.519181724,1.27455532009481,66,Longer,Index,66,L,Index
223,Spatial,4132,4,1,83,400,1.66666666666667,1.25,2,r,r,0,400,0,400,S,=,L,0.302890665271938,0.404858601885963,1.28512529080079,1.22645006958304,1.49140421256461,282571.011390081,282571.325525926,282571.325525926,282573.725263658,2.4,282575.045719716,282575.045719716,282578.245625933,3.2,282579.611423608,282581.223160569,1.61173696105834,78,Equals to,Middle,66,S,Index
223,Spatial,4132,4,1,84,800,15,5,1,m,m,-800,400,-800,0,L,S,=,0.330240075119427,0.417424510903298,1.03329014014178,1.41181880305049,1.42937184405536,282582.861456455,282583.205668465,282583.205668465,282584.00550263,0.8,282585.075676864,282585.075676864,282586.675685288,1.6,282588.244744459,282588.663133352,0.418388893012889,78,Shorter,Middle,66,L,Index
223,Spatial,4132,4,1,85,400,5,5,2,r,r,0,400,0,400,S,=,L,0.259298057246048,0.40847162193829,1.76114539007207,1.32494434139236,1.89786562808328,282590.261476216,282590.535601296,282590.535601296,282591.335563781,0.8,282593.125967093,282593.125967093,282593.925782331,0.8,282595.394850434,282595.783202222,0.388351787696593,78,Equals to,Middle,78,=,Middle
223,Spatial,4132,4,1,86,800,7.5,3.33333333333333,1,l,l,-1600,-400,-1600,-800,S,=,L,0.480470874248443,0.378591224614356,1.29059438776525,1.84177626693471,1.36246198923328,282597.844840828,282598.336093791,282598.336093791,282599.935653092,1.6,282601.24596667,282601.24596667,282603.645842667,2.4,282605.628205375,282606.463148814,0.834943439345807,66,Shorter,Index,77,L,Ring
223,Spatial,4132,4,1,87,800,5,5,1,m,m,-800,-400,-800,0,L,S,=,0.436243293385393,0.474810054291415,1.9359407117918,1.47058934023291,1.16292604938354,282607.961582658,282608.41597417,282608.41597417,282609.215806731,0.8,282611.175990416,282611.175990416,282612.776063642,1.6,282614.394929914,282614.886974342,0.492044427257497,66,Longer,Index,66,L,Index
223,Spatial,4132,4,1,88,800,5,5,1,l,l,-1600,-1200,-1600,-800,=,L,S,0.39625480706504,0.212815279579663,1.76061647504316,1.51424642020327,1.18560118542386,282616.194950815,282616.60625733,282616.60625733,282617.406101118,0.8,282619.20639829,282619.20639829,282620.805902734,1.6,282622.478285223,282623.046990459,0.568705236073583,78,Longer,Middle,78,L,Middle
223,Spatial,4132,4,1,89,1600,5,5,2,m,m,-800,400,-800,800,L,S,=,0.33785027483631,0.390376806705131,1.72572178908886,1.44558000102073,1.63490528424228,282624.378361445,282624.736053242,282624.736053242,282627.136017459,2.4,282628.886200522,282628.886200522,282632.086252383,3.2,282633.678409344,282634.071032977,0.392623632564209,66,Longer,Index,66,L,Index
223,Spatial,4132,4,1,90,1600,3.75,5,2,m,m,-800,400,-800,800,=,L,S,0.264510595444126,0.356346683283057,1.71236194928136,1.75709349652104,1.32280946865027,282635.861720154,282636.146378452,282636.146378452,282639.346238794,3.2,282641.086276167,282641.086276167,282644.286286003,3.2,282646.178436577,282647.087195631,0.908759053854737,78,Longer,Middle,66,=,Index
223,Spatial,4132,4,1,91,1200,20,7.5,1,l,l,-1600,0,-1600,-400,S,=,L,0.329429369174406,0.452221254205345,1.979867206192,1.82902486419683,1.33137668214855,282648.561837824,282648.906580121,282648.906580121,282649.706558967,0.8,282651.726826651,282651.726826651,282653.326374724,1.6,282655.311865201,282655.799215703,0.487350501585752,66,Shorter,Index,66,S,Index
223,Spatial,4132,4,1,92,1200,2.5,5,1,l,l,-1600,-800,-1600,-400,=,L,S,0.416833704901498,0.442429240451869,1.80579110728,1.65366387007246,1.25491204233929,282657.295233906,282657.726799062,282657.726799062,282660.926701429,3.2,282662.767052675,282662.767052675,282665.166546918,2.4,282666.961874588,282667.631161246,0.669286657939665,78,Longer,Middle,77,S,Ring
223,Spatial,4132,4,1,93,800,2.5,3.33333333333333,1,r,r,0,400,0,800,=,L,S,0.319639995773928,0.492595843673523,1.27158521227347,1.77160305421433,1.29717094917839,282669.028631593,282669.367095791,282669.367095791,282670.9666583,1.6,282672.266917297,282672.266917297,282674.666917765,2.4,282676.578665814,282677.431179596,0.852513781923335,78,Longer,Middle,77,S,Ring
223,Spatial,4132,4,1,94,800,1.25,3.33333333333333,1,m,m,-800,-400,-800,0,S,=,L,0.289908378751323,0.285943665675352,1.65299020250484,1.15314845694917,1.80312512222679,282678.878694117,282679.187187694,282679.187187694,282682.387094873,3.2,282684.067237842,282684.067237842,282686.46716613,2.4,282687.762007785,282689.063178777,1.30117099208292,77,Longer,Ring,66,S,Index
223,Spatial,4132,4,1,95,800,1.25,3.33333333333333,1,m,m,-800,-400,-800,0,S,=,L,0.448894871042742,0.365606048597672,1.30247211755348,1.85786548571388,1.04265939554168,282691.012099652,282691.477154671,282691.477154671,282694.676975233,3.2,282696.01716255,282696.01716255,282698.417173284,2.4,282700.412073261,282701.023049956,0.610976695024874,77,Longer,Ring,77,L,Ring
223,Spatial,4132,4,1,96,1200,2.5,5,1,l,l,-1600,-800,-1600,-400,=,L,S,0.410067273683079,0.290054921392732,1.48901151124049,1.95856630164594,1.20387417834287,282702.278794721,282702.70749415,282702.70749415,282705.907344868,3.2,282707.437482672,282707.437482672,282709.837366047,2.4,282711.92880149,282712.871291928,0.942490438523237,78,Longer,Middle,66,=,Index
