Subject,Task,SequenceOrder,ListNo,RunNo,TrialNo,Aud_Probe_Dist,Aud_Standard_Vel,Aud_Probe_Vel,Main_Control,Aud_Std_StartCode,Aud_Probe_StartCode,Aud_Std_StartPt,Aud_Std_EndPt,Aud_Probe_StartPt,Aud_Probe_EndPt,RespIndex,RespMiddle,RespRing,ISI_Cross_Std,ISI_Cross_Probe,ISI_Std_Probe,ISI_Probe_Response,ITI,TrialOnset,StdOnset,StdOnsetByStop,StdOffset,StdDur,ProbeOnset,ProbeOnsetByStop,ProbeOffset,ProbeDur,RespWinStart,RespTime,RT,CorrectKC,CorrectResponse,CorrectFinger,SubjRespKC,SubjResponse,SubjRespFinger
302,Temporal,2314,2,1,1,1200,3.33333333333333,7.5,1,l,l,-1600,-800,-1600,-400,S,=,L,0.46127389201073,0.462403721163621,1.51703870873847,1.91675185013763,1.12713006922107,259994.544970164,259995.017280277,259995.017280277,259997.422378553,2.4,259998.97246073,259998.97246073,260000.572467303,1.6,260002.645028309,260002.975058619,0.330030309094582,66,Shorter,Index,78,=,Middle
302,Temporal,2314,2,1,2,1200,10,5,1,m,m,-800,800,-800,400,S,=,L,0.40221065001306,0.361828046809092,1.64318615588424,1.2038658427865,1.01582935646112,260004.245060213,260004.662704087,260004.662704087,260006.262480004,1.6,260007.932689962,260007.932689962,260010.332521955,2.4,260011.678386841,260011.959107388,0.280720546637895,77,Longer,Ring,77,L,Ring
302,Temporal,2314,2,1,3,1200,3.33333333333333,7.5,1,r,r,0,800,0,1200,=,L,S,0.255670706450917,0.387086406135863,1.30772510544696,1.07613935452595,1.78181874806246,260013.128398374,260013.403002478,260013.403002478,260015.802788917,2.4,260017.132924212,260017.132924212,260018.732705903,1.6,260019.945108237,260020.23119644,0.28608820316731,77,Shorter,Ring,78,L,Middle
302,Temporal,2314,2,1,4,1200,20,7.5,1,r,r,0,1600,0,1200,L,S,=,0.408835456528891,0.487051316997445,1.02135175573306,1.65627143724626,1.67669407304111,260022.161823682,260022.583089729,260022.583089729,260023.382902602,0.8,260024.432993601,260024.432993601,260026.032853568,1.6,260027.828485215,260028.079252814,0.250767598627135,66,Longer,Index,77,=,Ring
302,Temporal,2314,2,1,5,800,1.66666666666667,5,1,l,l,-1600,-1200,-1600,-800,S,=,L,0.473284439043521,0.248721065202071,1.5790915331276,1.4501827591565,1.55405760974491,260029.895204301,260030.38320355,260030.38320355,260032.78300635,2.4,260034.393395425,260034.393395425,260035.992876524,1.6,260037.595217999,260037.919155367,0.323937367909821,66,Shorter,Index,78,=,Middle
302,Temporal,2314,2,1,6,1200,5,5,1,m,m,-800,0,-800,400,=,L,S,0.299294565283683,0.450722203584584,1.35344982224655,1.68656817273697,1.54997506129102,260039.611940437,260039.923268653,260039.923268653,260041.523085312,1.6,260042.913423565,260042.913423565,260045.313011428,2.4,260047.145261965,260047.215154423,0.0698924575990532,78,Longer,Middle,77,S,Ring
302,Temporal,2314,2,1,7,1200,5,5,1,r,r,0,800,0,1200,=,L,S,0.343145216705234,0.286704540899901,1.37241831240449,1.42283096701677,1.54826494694529,260048.911976143,260049.273439913,260049.273439913,260050.873293785,1.6,260052.283654886,260052.283654886,260054.683408282,2.4,260056.24531493,260056.511012005,0.265697075141361,78,Longer,Middle,77,S,Ring
302,Temporal,2314,2,1,8,400,5,5,2,r,r,0,400,0,400,=,L,S,0.406850549191251,0.410840144625088,1.59668155223802,1.97968725173847,1.88198878409496,260058.195336118,260058.623407143,260058.623407143,260059.423271986,0.8,260061.053707648,260061.053707648,260061.853500952,0.8,260063.978690416,260064.367096445,0.388406028650934,66,Equals to,Index,78,L,Middle
302,Temporal,2314,2,1,9,400,3.33333333333333,1.25,2,r,r,0,800,0,400,L,S,=,0.212233269406084,0.380398280427784,1.13011320219458,1.5276746528051,1.77496490440358,260066.39541202,260066.623716076,260066.623716076,260069.023582715,2.4,260070.193832934,260070.193832934,260073.393660692,3.2,260075.078777386,260075.39915674,0.320379354612669,66,Longer,Index,77,=,Ring
302,Temporal,2314,2,1,10,1200,6.66666666666667,7.5,1,l,l,-1600,0,-1600,-400,L,S,=,0.267767058050456,0.457781622332887,1.68718561461973,1.33451286377769,1.49524079515224,260077.312140521,260077.593818306,260077.593818306,260079.993632334,2.4,260081.713704524,260081.713704524,260083.313616139,1.6,260084.795474705,260085.055010781,0.259536075609503,78,Shorter,Middle,66,L,Index
302,Temporal,2314,2,1,11,1600,6.66666666666667,5,2,l,l,-1600,0,-1600,0,L,S,=,0.398445061071482,0.286536712192192,1.36526437038851,1.0960419038137,1.00394574924368,260086.712202885,260087.124136807,260087.124136807,260089.523619126,2.4,260090.923924372,260090.923924372,260094.123914135,3.2,260095.378883988,260095.630903035,0.25201904666028,66,Longer,Index,78,S,Middle
302,Temporal,2314,2,1,12,400,1.25,1.25,2,m,m,-800,-400,-800,-400,S,=,L,0.490463042543809,0.373879292716582,1.62153588017716,1.43792961030452,1.45335896772928,260096.778934803,260097.284243236,260097.284243236,260100.484071957,3.2,260102.134221534,260102.134221534,260105.333977754,3.2,260106.912291491,260107.087074926,0.174783434689743,78,Equals to,Middle,77,L,Ring
302,Temporal,2314,2,1,13,800,15,5,1,m,m,-800,400,-800,0,S,=,L,0.369514686766363,0.361849876355393,1.11664466234782,1.79007789664273,1.80667878006578,260108.679004064,260109.064433658,260109.064433658,260109.863914501,0.8,260111.01423683,260111.01423683,260112.614070812,1.6,260114.545648018,260114.839100228,0.293452209676616,77,Longer,Ring,77,L,Ring
302,Temporal,2314,2,1,14,400,2.5,1.25,2,r,r,0,800,0,400,L,S,=,0.279584707622585,0.441239200635751,1.44415768476141,1.81331584403907,1.95816926966658,260116.79572493,260117.094535779,260117.094535779,260120.294053001,3.2,260121.774448675,260121.774448675,260124.974231842,3.2,260126.945745029,260127.27924967,0.333504641515901,77,Equals to,Ring,78,S,Middle
302,Temporal,2314,2,1,15,1600,10,20,2,l,l,-1600,0,-1600,0,L,S,=,0.228085054322398,0.202446037191477,1.1151074442944,1.10420538809699,1.83768855281255,260129.379099246,260129.624556897,260129.624556897,260131.224413656,1.6,260132.374493459,260132.374493459,260133.174293179,0.8,260134.429092044,260134.60704853,0.177956485771574,78,Shorter,Middle,66,L,Index
302,Temporal,2314,2,1,16,800,3.75,3.33333333333333,1,m,m,-800,400,-800,0,S,=,L,0.386638891493045,0.22868686096068,1.91451679801099,1.33102335291578,1.24450186003546,260136.595793518,260136.994551145,260136.994551145,260140.19451364,3.2,260142.144583113,260142.144583113,260144.544360891,2.4,260146.029149019,260146.527036378,0.497887359408196,66,Shorter,Index,78,=,Middle
302,Temporal,2314,2,1,17,800,5,5,1,r,r,0,1200,0,800,L,S,=,0.253550730246857,0.209380869300854,1.66181374297225,1.08337280381827,1.75786815317135,260147.912566998,260148.184962442,260148.184962442,260150.584514054,2.4,260152.274895071,260152.274895071,260153.874591428,1.6,260155.112544026,260155.33502043,0.222476404218469,78,Shorter,Middle,78,S,Middle
302,Temporal,2314,2,1,18,1200,10,5,1,l,l,-1600,0,-1600,-400,L,S,=,0.246279003647389,0.205146132747843,1.38401908668417,1.46259726966516,1.41627199050939,260157.229290556,260157.49488109,260157.49488109,260159.094700315,1.6,260160.514771767,260160.514771767,260162.914666316,2.4,260164.529257289,260164.918875628,0.389618338813307,66,Longer,Index,77,=,Ring
302,Temporal,2314,2,1,19,400,10,5,2,m,m,-800,0,-800,-400,L,S,=,0.495776189048338,0.31882659141245,1.37853310554808,1.45543736287198,1.13883149566963,260166.479305233,260166.99514495,260166.99514495,260167.794995677,0.8,260169.204967325,260169.204967325,260170.004778273,0.8,260171.596027806,260171.79906159,0.203033784753643,77,Equals to,Ring,78,S,Middle
302,Temporal,2314,2,1,20,1600,15,20,2,l,l,-1600,-400,-1600,0,=,L,S,0.489566403632838,0.375093196313522,1.81228325986683,1.16097046728423,1.35823450459101,260173.079350979,260173.585037638,260173.585037638,260174.38481811,0.8,260176.225087054,260176.225087054,260177.02493714,0.8,260178.345999553,260178.631186624,0.285187070781831,66,Equals to,Index,78,L,Middle
302,Temporal,2314,2,1,21,800,7.5,3.33333333333333,1,r,r,0,1200,0,800,L,S,=,0.293370381692588,0.485831384974104,1.86939053495044,1.01084019332442,1.1538867090311,260180.129401842,260180.43524948,260180.43524948,260182.035048173,1.6,260183.935264397,260183.935264397,260186.335138094,2.4,260187.49611641,260187.790846176,0.294729765388183,66,Longer,Index,77,=,Ring
302,Temporal,2314,2,1,22,1200,10,5,1,m,m,-800,800,-800,400,=,L,S,0.315824131118057,0.27011190355679,1.95443615391536,1.95484176634481,1.01530989641635,260189.096103573,260189.425494537,260189.425494537,260191.025293872,1.6,260193.035429321,260193.035429321,260195.43526773,2.4,260197.529028237,260197.774837201,0.245808964420576,78,Longer,Middle,78,L,Middle
302,Temporal,2314,2,1,23,1200,5,5,1,r,r,0,800,0,1200,S,=,L,0.488186087317793,0.416688097631315,1.0647559422179,1.28478319470833,1.77295321427778,260198.946146352,260199.445398688,260199.445398688,260201.045221762,1.6,260202.145595243,260202.145595243,260204.545403176,2.4,260205.979555032,260206.287152303,0.307597270904807,77,Longer,Ring,77,L,Ring
302,Temporal,2314,2,1,24,400,10,5,2,l,l,-1600,-800,-1600,-1200,S,=,L,0.479168557304592,0.323147218024657,1.32279782794998,1.32499545029904,1.52603346692682,260208.196216527,260208.695697274,260208.695697274,260209.495480954,0.8,260210.855525247,260210.855525247,260211.655303153,0.8,260213.112908778,260213.367117297,0.254208519269014,78,Equals to,Middle,78,=,Middle
302,Temporal,2314,2,1,25,1200,20,7.5,1,r,r,0,1600,0,1200,=,L,S,0.314443241371523,0.459319262327741,1.91207069853649,1.8856552374184,1.02482031881229,260215.246262578,260215.575887407,260215.575887407,260216.37536825,0.8,260218.325860219,260218.325860219,260219.925703825,1.6,260221.962947065,260222.17508563,0.212138564587804,78,Longer,Middle,77,S,Ring
302,Temporal,2314,2,1,26,1600,5,5,2,r,r,0,1600,0,1600,=,L,S,0.309212669747498,0.274777945078799,1.66801060101304,1.23233329764599,1.85675938962347,260223.362964517,260223.685839033,260223.685839033,260226.885623804,3.2,260228.575831587,260228.575831587,260231.775677311,3.2,260233.162978889,260233.566957281,0.40397839207435,66,Equals to,Index,77,S,Ring
302,Temporal,2314,2,1,27,1200,2.5,5,1,l,l,-1600,-800,-1600,-400,=,L,S,0.42051174776623,0.314288576047729,1.82097087082293,1.68304739406192,1.79107885891607,260235.563055689,260235.995904288,260235.995904288,260239.195805509,3.2,260241.046117797,260241.046117797,260243.445923805,2.4,260245.279300357,260245.503094294,0.223793937417213,77,Shorter,Ring,78,L,Middle
302,Temporal,2314,2,1,28,800,1.25,3.33333333333333,1,m,m,-800,-400,-800,0,=,L,S,0.444262865117157,0.366600208351371,1.85121105907925,1.17868448245581,1.33629525272706,260247.446426893,260247.906384531,260247.906384531,260251.106125673,3.2,260252.976285009,260252.976285009,260255.376165443,2.4,260256.713114604,260256.982900941,0.269786336342804,77,Shorter,Ring,78,L,Middle
302,Temporal,2314,2,1,29,1600,3.75,5,2,m,m,-800,400,-800,800,=,L,S,0.424502381582857,0.303922908303497,1.89211962322549,1.0837501998393,1.89856654151668,260258.463155747,260258.906289574,260258.906289574,260262.106097121,3.2,260264.036552448,260264.036552448,260267.236321821,3.2,260268.463227075,260268.703043993,0.239816918008728,66,Equals to,Index,78,L,Middle
302,Temporal,2314,2,1,30,800,1.25,3.33333333333333,1,l,l,-1600,-1200,-1600,-800,=,L,S,0.274600820199179,0.329198579717424,1.35837049545737,1.22994266556442,1.6812595184046,260270.763260746,260271.056521401,260271.056521401,260274.256160207,3.2,260275.656426316,260275.656426316,260278.056192865,2.4,260279.446586331,260279.69488953,0.248303198808571,77,Shorter,Ring,78,L,Middle
302,Temporal,2314,2,1,31,400,5,5,2,l,l,-1600,-1200,-1600,-1200,L,S,=,0.238686170017609,0.457266893094659,1.33809041884085,1.59437600313373,1.26730996679776,260281.52994573,260281.786759446,260281.786759446,260282.586252159,0.8,260283.946725685,260283.946725685,260284.746551069,0.8,260286.496686011,260286.686734106,0.1900480944023,77,Equals to,Ring,78,S,Middle
302,Temporal,2314,2,1,32,800,5,5,1,l,l,-1600,-1200,-1600,-800,S,=,L,0.475833272738215,0.287446983158683,1.4426872875601,1.35364487198663,1.61863970481444,260288.09670782,260288.586706129,260288.586706129,260289.386523493,0.8,260290.856695212,260290.856695212,260292.456571539,1.6,260293.962925572,260294.278988217,0.316062644909834,77,Longer,Ring,77,L,Ring
302,Temporal,2314,2,1,33,1200,20,7.5,1,l,l,-1600,0,-1600,-400,=,L,S,0.285480008317988,0.25850898813916,1.98800588311242,1.69793114916355,1.58610125787298,260296.04670105,260296.346752439,260296.346752439,260297.146556651,0.8,260299.166980857,260299.166980857,260300.766794307,1.6,260302.613434657,260302.814996139,0.201561481721001,78,Longer,Middle,77,S,Ring
302,Temporal,2314,2,1,34,1600,10,20,2,r,r,0,1600,0,1600,L,S,=,0.418400529166033,0.307798287360274,1.18772014529467,1.31652164040574,1.22774382619836,260304.546766654,260304.976861169,260304.976861169,260306.576681677,1.6,260307.797133215,260307.797133215,260308.596597056,0.8,260310.063424771,260310.374939088,0.311514316272223,78,Shorter,Middle,66,L,Index
302,Temporal,2314,2,1,35,800,7.5,3.33333333333333,1,m,m,-800,400,-800,0,S,=,L,0.313430246301437,0.227543392268154,1.25778938961966,1.29437606172907,1.90572337161609,260311.763456435,260312.096953342,260312.096953342,260313.696710973,1.6,260314.986871791,260314.986871791,260317.386856806,2.4,260318.830194919,260319.039034207,0.208839288068702,77,Longer,Ring,78,=,Middle
302,Temporal,2314,2,1,36,800,1.66666666666667,5,1,r,r,0,400,0,800,S,=,L,0.375723108809513,0.249462775154131,1.72073243930615,1.51351898041104,1.92914850250444,260321.096839813,260321.487256592,260321.487256592,260323.88708666,2.4,260325.637259047,260325.637259047,260327.236938081,1.6,260328.89686028,260329.071019755,0.174159475078341,66,Shorter,Index,78,=,Middle
302,Temporal,2314,2,1,37,800,15,5,1,m,m,-800,400,-800,0,L,S,=,0.384720757107371,0.351132422480954,1.67012898997385,1.74736817956176,1.29991130920832,260331.130254855,260331.527245185,260331.527245185,260332.32701475,0.8,260334.027112212,260334.027112212,260335.627129051,1.6,260337.530244076,260337.759079735,0.228835659305332,66,Longer,Index,78,S,Middle
302,Temporal,2314,2,1,38,1200,6.66666666666667,7.5,1,m,m,-800,800,-800,400,S,=,L,0.219321353178956,0.350322151011243,1.54532167935468,1.00866950911646,1.62811922426471,260339.213607837,260339.447462727,260339.447462727,260341.847279642,2.4,260343.427462335,260343.427462335,260345.027247235,1.6,260346.180316946,260346.494961005,0.314644059137208,66,Shorter,Index,66,S,Index
302,Temporal,2314,2,1,39,800,15,5,1,r,r,0,1200,0,800,S,=,L,0.421737578821913,0.444294318227754,1.87587776618417,1.06082862549933,1.4985924654839,260348.263634319,260348.697491519,260348.697491519,260349.497285144,0.8,260351.407364741,260351.407364741,260353.007256467,1.6,260354.230391057,260354.479087729,0.248696672380902,77,Longer,Ring,77,L,Ring
302,Temporal,2314,2,1,40,400,2.5,5,2,r,r,0,400,0,400,=,L,S,0.366657306445235,0.465886936400656,1.00630068423055,1.05967974484223,1.24619809459942,260356.130387987,260356.507580352,260356.507580352,260358.107486835,1.6,260359.147689438,260359.147689438,260359.947532145,0.8,260361.147044661,260361.358935246,0.211890584760113,77,Shorter,Ring,66,=,Index
302,Temporal,2314,2,1,41,800,5,5,1,m,m,-800,400,-800,0,L,S,=,0.357611322381805,0.264160750605337,1.80357897541212,1.33453392742648,1.34439308375164,260362.763761517,260363.137596049,260363.137596049,260365.537602558,2.4,260367.367756299,260367.367756299,260368.967618191,1.6,260370.447157652,260370.566995136,0.119837483332958,78,Shorter,Middle,66,L,Index
302,Temporal,2314,2,1,42,800,1.25,3.33333333333333,1,l,l,-1600,-1200,-1600,-800,=,L,S,0.335126433766592,0.20155811545603,1.39011996061253,1.03475334819918,1.31884179249415,260372.063807809,260372.417869077,260372.417869077,260375.617689457,3.2,260377.03774936,260377.03774936,260379.437613112,2.4,260380.613825469,260381.214918633,0.601093164383201,77,Shorter,Ring,78,L,Middle
302,Temporal,2314,2,1,43,1200,2.5,5,1,m,m,-800,0,-800,400,=,L,S,0.319554878809778,0.37252269650277,1.04459749064416,1.07484667223785,1.19299089479999,260382.680557708,260383.017964868,260383.017964868,260386.217810912,3.2,260387.287976087,260387.287976087,260389.687822837,2.4,260390.897274633,260391.094687233,0.197412599198287,77,Shorter,Ring,78,L,Middle
302,Temporal,2314,2,1,44,800,2.5,3.33333333333333,1,r,r,0,400,0,800,S,=,L,0.343503786677398,0.316432735865955,1.50244876726317,1.42901048284942,1.33591202227662,260392.430597567,260392.788318222,260392.788318222,260394.387778149,1.6,260395.918150901,260395.918150901,260398.317996047,2.4,260399.897259999,260400.199009107,0.301749107951764,77,Longer,Ring,77,L,Ring
302,Temporal,2314,2,1,45,800,15,5,1,m,m,-800,400,-800,0,=,L,S,0.22450064799517,0.423141626630222,1.14685929599692,1.34682352470796,1.29276648497942,260401.680633096,260401.918250992,260401.918250992,260402.718059694,0.8,260403.88822843,260403.88822843,260405.488169559,1.6,260406.980696124,260407.19070066,0.210004535940243,78,Longer,Middle,78,L,Middle
302,Temporal,2314,2,1,46,400,5,5,2,r,r,0,800,0,400,S,=,L,0.32444017553323,0.351493967820982,1.54211407245775,1.01913717099726,1.39410429113896,260408.630695155,260408.968339709,260408.968339709,260410.568183315,1.6,260412.138060891,260412.138060891,260412.938122385,0.8,260414.097386459,260414.382867385,0.285480925260345,66,Shorter,Index,66,S,Index
302,Temporal,2314,2,1,47,1600,20,20,2,l,l,-1600,0,-1600,0,=,L,S,0.361845228382892,0.317253502036732,1.10211509668975,1.11223926820427,1.47351309895177,260415.914069054,260416.288428738,260416.288428738,260417.088287486,0.8,260418.218446777,260418.218446777,260419.018278577,0.8,260420.280721188,260420.574854781,0.294133592804428,66,Equals to,Index,78,L,Middle
302,Temporal,2314,2,1,48,1600,7.5,20,2,l,l,-1600,-400,-1600,0,S,=,L,0.474008886848531,0.38598844594005,1.49557406878118,1.76039060447547,1.61904184316656,260422.197418892,260422.688544997,260422.688544997,260424.288410738,1.6,260425.808514944,260425.808514944,260426.608339366,0.8,260428.530783664,260428.84701056,0.316226895462023,66,Shorter,Index,66,S,Index
302,Temporal,2314,2,1,49,1200,6.66666666666667,7.5,1,r,r,0,1600,0,1200,=,L,S,0.206946610795313,0.341650083184175,1.59975077624981,1.43301046638032,1.63562559362299,260435.880851305,260436.098767797,260436.098767797,260438.498637965,2.4,260440.128938569,260440.128938569,260441.728436351,1.6,260443.314193333,260443.559051119,0.244857786950888,77,Shorter,Ring,78,L,Middle
302,Temporal,2314,2,1,50,400,1.66666666666667,1.25,2,m,m,-800,-400,-800,-400,L,S,=,0.3802066377721,0.34626635469468,1.85336081358878,1.66203333908625,1.85486902883779,260445.347570199,260445.738915379,260445.738915379,260448.138777527,2.4,260450.018909309,260450.018909309,260453.218871483,3.2,260455.030903484,260455.302885067,0.271981583384331,66,Longer,Index,77,=,Ring
302,Temporal,2314,2,1,51,800,1.25,3.33333333333333,1,l,l,-1600,-1200,-1600,-800,S,=,L,0.488201365927589,0.414157004733999,1.42092991827326,1.08344304504091,1.2234616306113,260457.297620388,260457.798606979,260457.798606979,260460.998721213,3.2,260462.449117744,260462.449117744,260464.849018709,2.4,260466.081035708,260466.383072698,0.302036989945918,66,Shorter,Index,78,=,Middle
302,Temporal,2314,2,1,52,1200,5,5,1,r,r,0,1600,0,1200,=,L,S,0.38256258907481,0.360365389551898,1.0534468226998,1.57154076468589,1.92535048726163,260467.747693194,260468.149285427,260468.149285427,260471.34910324,3.2,260472.429203969,260472.429203969,260474.829082478,2.4,260476.547714944,260476.702646198,0.154931253753603,77,Shorter,Ring,78,L,Middle
302,Temporal,2314,2,1,53,1600,6.66666666666667,5,2,m,m,-800,800,-800,800,L,S,=,0.470516912110256,0.428813912450842,1.41359441408792,1.16313532597278,1.68137637626121,260478.781082572,260479.269486351,260479.269486351,260481.66897252,2.4,260483.109321536,260483.109321536,260486.309158277,3.2,260487.631149977,260487.84685465,0.21570467291167,66,Longer,Index,77,=,Ring
302,Temporal,2314,2,1,54,400,5,5,2,r,r,0,800,0,400,=,L,S,0.219816405554303,0.244428787593358,1.69736498905627,1.7713324475629,1.053025146905,260489.681124244,260489.919633327,260489.919633327,260491.519391279,1.6,260493.239570616,260493.239570616,260494.039382527,0.8,260495.947770572,260496.09480625,0.147035678615794,77,Shorter,Ring,66,=,Index
302,Temporal,2314,2,1,55,800,7.5,3.33333333333333,1,m,m,-800,400,-800,0,L,S,=,0.365734467583509,0.462094245468156,1.24751044665086,1.82726111352699,1.95500814765498,260497.297841741,260497.679723588,260497.679723588,260499.279219123,1.6,260500.559595164,260500.559595164,260502.959467899,2.4,260504.947914762,260505.127048761,0.179133999103215,66,Longer,Index,78,S,Middle
302,Temporal,2314,2,1,56,800,2.5,3.33333333333333,1,m,m,-800,-400,-800,0,=,L,S,0.263881036058269,0.265109566213379,1.47722707714831,1.92772853837642,1.48499853965806,260507.247921445,260507.529856512,260507.529856512,260509.129623446,1.6,260510.63953706,260510.63953706,260513.039437063,2.4,260515.114609028,260515.446875053,0.332266025594436,78,Longer,Middle,78,L,Middle
302,Temporal,2314,2,1,57,800,7.5,3.33333333333333,1,l,l,-1600,-400,-1600,-800,S,=,L,0.202907410215692,0.366911366445218,1.08683574137318,1.79374725264347,1.81870406743077,260517.081295039,260517.300040803,260517.300040803,260518.899557832,1.6,260520.019765208,260520.019765208,260522.419545552,2.4,260524.364649689,260524.646861002,0.282211312820436,77,Longer,Ring,77,L,Ring
302,Temporal,2314,2,1,58,800,2.5,3.33333333333333,1,l,l,-1600,-1200,-1600,-800,L,S,=,0.319929009166435,0.214830799123612,1.46922749996077,1.41174211334492,1.21034852582536,260526.61467816,260526.949869222,260526.949869222,260528.549688447,1.6,260530.049961003,260530.049961003,260532.449760916,2.4,260534.014694008,260534.310839028,0.296145020402037,66,Longer,Index,77,=,Ring
302,Temporal,2314,2,1,59,800,1.66666666666667,5,1,l,l,-1600,-1200,-1600,-800,L,S,=,0.208485468221033,0.266721162269963,1.94549735589933,1.86361090174843,1.11869809952371,260535.6647518,260535.890306584,260535.890306584,260538.290038487,2.4,260540.260303078,260540.260303078,260541.85976942,1.6,260543.881467395,260544.070855505,0.189388109458378,78,Shorter,Middle,66,L,Index
302,Temporal,2314,2,1,60,1200,10,7.5,1,r,r,0,800,0,1200,L,S,=,0.449472756831775,0.284468638109186,1.17469986972506,1.92166835142017,1.74032584120005,260545.331446377,260545.800204251,260545.800204251,260546.599998518,0.8,260547.800075289,260547.800075289,260549.399939747,1.6,260551.46479312,260551.918843869,0.454050748929149,66,Longer,Index,77,=,Ring
302,Temporal,2314,2,1,61,800,5,5,1,r,r,0,400,0,800,L,S,=,0.478232293686272,0.444232582153039,1.61523799224778,1.10683100500992,1.9232427563925,260553.798165591,260554.290232286,260554.290232286,260555.089966884,0.8,260556.730399693,260556.730399693,260558.330216031,1.6,260559.581557895,260559.910878038,0.32932014297694,66,Longer,Index,77,=,Ring
302,Temporal,2314,2,1,62,1200,2.5,5,1,r,r,0,800,0,1200,=,L,S,0.438586282833937,0.271267922385489,1.69996974748103,1.31669777978137,1.27964279041194,260561.981551969,260562.430243046,260562.430243046,260565.630319426,3.2,260567.360602418,260567.360602418,260569.760435694,2.4,260571.231574666,260571.382661751,0.151087085163454,77,Shorter,Ring,78,L,Middle
302,Temporal,2314,2,1,63,1200,10,7.5,1,l,l,-1600,-800,-1600,-400,=,L,S,0.235865292481316,0.420968522725352,1.17675976636339,1.46208761915066,1.70763988991548,260572.798266323,260573.050754026,260573.050754026,260573.850224282,0.8,260575.060542011,260575.060542011,260576.660409356,1.6,260578.281663677,260578.582911078,0.301247401046567,78,Longer,Middle,77,S,Ring
302,Temporal,2314,2,1,64,800,5,5,1,l,l,-1600,-1200,-1600,-800,L,S,=,0.349017498788355,0.313365543560714,1.69110349369111,1.64583221266075,1.59466462178526,260580.431660063,260580.800879218,260580.800879218,260581.600409786,0.8,260583.320849294,260583.320849294,260584.92059698,1.6,260586.714981671,260586.958752902,0.243771231063874,66,Longer,Index,77,=,Ring
302,Temporal,2314,2,1,65,1200,2.5,5,1,m,m,-800,0,-800,400,S,=,L,0.221576306466334,0.348918291849683,1.40450372859083,1.53458162139588,1.95700394371758,260588.715025621,260588.950926906,260588.950926906,260592.150490965,3.2,260593.580882933,260593.580882933,260595.980700811,2.4,260597.665040843,260597.846959552,0.181918709451566,66,Shorter,Index,78,=,Middle
302,Temporal,2314,2,1,66,1600,5,5,2,l,l,-1600,-400,-1600,0,=,L,S,0.330832451448013,0.268451070116687,1.41100030768404,1.52666039947189,1.669595691847,260599.948452275,260600.290929068,260600.290929068,260602.690797632,2.4,260604.121116779,260604.121116779,260607.320668327,3.2,260608.998448923,260609.182750869,0.184301946399501,78,Longer,Middle,78,L,Middle
302,Temporal,2314,2,1,67,400,1.25,1.25,2,l,l,-1600,-1200,-1600,-1200,L,S,=,0.445825493325539,0.416821429029701,1.63049229624271,1.63303037670619,1.44456084982908,260610.998491269,260611.461004094,260611.461004094,260614.660939,3.2,260616.331337911,260616.331337911,260619.530848396,3.2,260621.315008811,260621.526812458,0.211803647456691,77,Equals to,Ring,78,S,Middle
302,Temporal,2314,2,1,68,800,5,5,1,m,m,-800,400,-800,0,S,=,L,0.259128552151318,0.20216650204558,1.65199643991038,1.64996472140366,1.67009202316896,260623.131890944,260623.411175226,260623.411175226,260625.811107629,2.4,260627.501415503,260627.501415503,260629.101245956,1.6,260630.898570154,260631.062738897,0.164168743067421,66,Shorter,Index,66,S,Index
302,Temporal,2314,2,1,69,800,3.75,3.33333333333333,1,l,l,-1600,-400,-1600,-800,L,S,=,0.237788844371216,0.467016118147679,1.54025349333784,1.09121426309141,1.49979417755227,260632.881955185,260633.131342338,260633.131342338,260636.331155981,3.2,260637.901469847,260637.901469847,260640.301268476,2.4,260641.532027659,260641.822959083,0.290931423718575,78,Shorter,Middle,78,S,Middle
302,Temporal,2314,2,1,70,1200,5,5,1,r,r,0,800,0,1200,L,S,=,0.276767247915762,0.201063079380485,1.8909883671641,1.7777348093924,1.85925801461007,260643.465351957,260643.761486676,260643.761486676,260645.361321299,1.6,260647.291735564,260647.291735564,260649.691485431,2.4,260651.632043485,260651.854852561,0.222809075756231,66,Longer,Index,77,=,Ring
302,Temporal,2314,2,1,71,1200,10,5,1,l,l,-1600,0,-1600,-400,=,L,S,0.275677808729553,0.271025542339523,1.52820047743222,1.92262696415284,1.59273347535826,260653.848749947,260654.141410383,260654.141410383,260655.741424014,1.6,260657.291872546,260657.291872546,260659.691635246,2.4,260661.765469248,260661.950805036,0.185335788264638,78,Longer,Middle,77,S,Ring
302,Temporal,2314,2,1,72,800,1.66666666666667,5,1,l,l,-1600,-1200,-1600,-800,L,S,=,0.480732186338061,0.223715603072414,1.27324306989597,1.55898398227809,1.15317373528998,260663.682137015,260664.181915145,260664.181915145,260666.581750988,2.4,260667.892083826,260667.892083826,260669.491794941,1.6,260671.198825609,260671.534779572,0.33595396365854,78,Shorter,Middle,66,L,Index
302,Temporal,2314,2,1,73,1200,20,7.5,1,m,m,-800,800,-800,400,L,S,=,0.407391276734182,0.471103189735176,1.01794062812947,1.0982060648253,1.96372688640516,260677.232206966,260677.651920333,260677.651920333,260678.45175887,0.8,260679.502126721,260679.502126721,260681.101933113,1.6,260682.348927511,260683.086586986,0.737659474631073,66,Longer,Index,77,=,Ring
302,Temporal,2314,2,1,74,1600,5,5,2,l,l,-1600,-400,-1600,0,S,=,L,0.229586977799663,0.426972891915425,1.49774280024752,1.63524062339479,1.44228318894564,260685.198919283,260685.442182328,260685.442182328,260687.841815103,2.4,260689.38205155,260689.38205155,260692.581864552,3.2,260694.36560215,260694.502908871,0.137306720891502,77,Longer,Ring,77,L,Ring
302,Temporal,2314,2,1,75,1600,7.5,20,2,l,l,-1600,-400,-1600,0,S,=,L,0.268965201796613,0.25084636932914,1.18257874807581,1.73184102347164,1.03872695419591,260696.082324813,260696.362262247,260696.362262247,260697.96212093,1.6,260699.182207717,260699.182207717,260699.982017382,0.8,260701.865633107,260702.062777073,0.19714396528434,66,Shorter,Index,66,S,Index
302,Temporal,2314,2,1,76,1600,15,20,2,m,m,-800,400,-800,800,S,=,L,0.390407987507741,0.247174349822358,1.21701602945503,1.31464496462583,1.2404829849509,260703.249008642,260703.652265836,260703.652265836,260704.452090258,0.8,260705.702369632,260705.702369632,260706.502127327,0.8,260707.965667144,260708.262760776,0.297093631466851,78,Equals to,Middle,78,=,Middle
302,Temporal,2314,2,1,77,400,1.66666666666667,1.25,2,r,r,0,400,0,400,L,S,=,0.40558308828314,0.479092055872469,1.13101734693879,1.37408777617564,1.33709492547727,260709.649027377,260710.072570797,260710.072570797,260712.472347933,2.4,260713.632511179,260713.632511179,260716.832440632,3.2,260718.34911918,260718.542812451,0.193693270295626,66,Longer,Index,77,=,Ring
302,Temporal,2314,2,1,78,1200,10,7.5,1,r,r,0,800,0,1200,=,L,S,0.205701432727343,0.409579359020208,1.87024809650177,1.06257382765617,1.74821833516799,260720.032427293,260720.252588435,260720.252588435,260721.05250621,0.8,260722.952637421,260722.952637421,260724.552484877,1.6,260725.765789947,260726.086863838,0.321073890605476,78,Longer,Middle,77,S,Ring
302,Temporal,2314,2,1,79,1200,5,5,1,r,r,0,1600,0,1200,S,=,L,0.348006804960215,0.31717191416567,1.92696358530064,1.55156843486623,1.6558847915677,260727.982522074,260728.342818126,260728.342818126,260731.542454044,3.2,260733.512715748,260733.512715748,260735.912516302,2.4,260737.615900211,260737.814675337,0.198775126569672,66,Shorter,Index,78,=,Middle
302,Temporal,2314,2,1,80,400,3.33333333333333,1.25,2,m,m,-800,0,-800,-400,L,S,=,0.339407190089353,0.417436856514096,1.57658775350009,1.83123321003958,1.43789163014411,260739.615879242,260739.972717692,260739.972717692,260742.37276783,2.4,260743.972899908,260743.972899908,260747.172792147,3.2,260749.149233492,260749.478811519,0.329578026867239,66,Longer,Index,77,=,Ring
302,Temporal,2314,2,1,81,1200,3.33333333333333,7.5,1,m,m,-800,0,-800,400,S,=,L,0.401155988569061,0.223073184855652,1.10581837169402,1.29801233083891,1.63414988772151,260751.065951086,260751.482904595,260751.482904595,260753.882720547,2.4,260755.023009477,260755.023009477,260756.623004181,1.6,260758.066011322,260758.270820922,0.204809600458248,66,Shorter,Index,78,=,Middle
302,Temporal,2314,2,1,82,1600,3.75,5,2,r,r,0,1200,0,1600,S,=,L,0.407672086992939,0.334505988651283,1.32855503837959,1.67407041739083,1.00022281225,260760.049348307,260760.473211567,260760.473211567,260763.673035154,3.2,260765.023273497,260765.023273497,260768.223000845,3.2,260770.03269035,260770.22271091,0.190020560199628,78,Equals to,Middle,78,=,Middle
302,Temporal,2314,2,1,83,1600,20,20,2,m,m,-800,800,-800,800,=,L,S,0.393046564489141,0.463114718482785,1.65404801258028,1.33536196165214,1.84665402161513,260771.366043894,260771.773421788,260771.773421788,260772.57293407,0.8,260774.253108775,260774.253108775,260775.05309039,0.8,260776.532786581,260776.758700547,0.225913966569351,66,Equals to,Index,78,L,Middle
302,Temporal,2314,2,1,84,800,5,5,1,r,r,0,400,0,800,S,=,L,0.321624933651394,0.284137615947092,1.99647805324736,1.44110009438115,1.30651559447889,260778.749456963,260779.083474531,260779.083474531,260779.883034612,0.8,260781.913554773,260781.913554773,260783.513364374,1.6,260785.099436704,260785.366824084,0.267387380095897,77,Longer,Ring,77,L,Ring
302,Temporal,2314,2,1,85,1600,5,5,2,l,l,-1600,0,-1600,0,L,S,=,0.483717275248142,0.332967194273731,1.27846740509645,1.72427539679975,1.99278574732028,260786.816169632,260787.313374611,260787.313374611,260790.513184084,3.2,260791.82354034,260791.82354034,260795.023362966,3.2,260796.882834182,260797.078625646,0.195791464677313,77,Equals to,Ring,78,S,Middle
302,Temporal,2314,2,1,86,1200,10,7.5,1,m,m,-800,0,-800,400,=,L,S,0.302096361855236,0.299378549053221,1.59969642944407,1.63927419285747,1.34207598211827,260799.216230392,260799.533690094,260799.533690094,260800.333526065,0.8,260801.963690328,260801.963690328,260803.563574034,1.6,260805.349545055,260805.542782937,0.193237881932873,78,Longer,Middle,77,S,Ring
302,Temporal,2314,2,1,87,1200,5,5,1,m,m,-800,800,-800,400,S,=,L,0.253453413634538,0.263767016610683,1.55725303777264,1.06531941060782,1.0091870252054,260807.049592437,260807.313740646,260807.313740646,260810.513647642,3.2,260812.103939764,260812.103939764,260814.503545592,2.4,260815.716338172,260815.94271281,0.226374638004927,66,Shorter,Index,78,=,Middle
302,Temporal,2314,2,1,88,1200,6.66666666666667,7.5,1,l,l,-1600,0,-1600,-400,S,=,L,0.23255322721982,0.474069134574418,1.44491761702362,1.29962806418458,1.19392194659761,260817.099650679,260817.343836992,260817.343836992,260819.743720313,2.4,260821.223839456,260821.223839456,260822.823699423,1.6,260824.266323922,260824.398880851,0.132556928700069,66,Shorter,Index,66,S,Index
302,Temporal,2314,2,1,89,1200,5,5,1,m,m,-800,800,-800,400,S,=,L,0.333663772026019,0.374380512713166,1.82379291709097,1.72210224922633,1.05043425461959,260825.749692752,260826.094098205,260826.094098205,260829.293745994,3.2,260831.154104833,260831.154104833,260833.553926239,2.4,260835.416441565,260835.582776662,0.166335097397678,66,Shorter,Index,78,=,Middle
302,Temporal,2314,2,1,90,1200,3.33333333333333,7.5,1,m,m,-800,0,-800,400,L,S,=,0.408838594029071,0.255589745948078,1.59826677447526,1.84842932676431,1.53705839969813,260836.783124796,260837.204200608,260837.204200608,260839.604016882,2.4,260841.234196544,260841.234196544,260842.834054586,1.6,260844.833137163,260845.038885676,0.205748512526043,78,Shorter,Middle,78,S,Middle
302,Temporal,2314,2,1,91,400,2.5,1.25,2,l,l,-1600,-800,-1600,-1200,S,=,L,0.344788538087709,0.376865667708613,1.59737320625924,1.34483109956731,1.59721072851469,260846.716491044,260847.074335849,260847.074335849,260850.274152058,3.2,260851.894460326,260851.894460326,260855.094347754,3.2,260856.599899836,260856.750701353,0.150801516807405,78,Equals to,Middle,78,=,Middle
302,Temporal,2314,2,1,92,400,2.5,5,2,r,r,0,400,0,400,=,L,S,0.247982574928572,0.366196316301065,1.36406020062583,1.39534109597758,1.99409799469164,260858.499873123,260858.764360098,260858.764360098,260860.364188306,1.6,260861.764518253,260861.764518253,260862.564303217,0.8,260864.116558861,260864.342770361,0.226211500179488,77,Shorter,Ring,66,=,Index
302,Temporal,2314,2,1,93,800,3.75,3.33333333333333,1,r,r,0,1200,0,800,=,L,S,0.212751805606649,0.234057478317467,1.39723099406244,1.44670515191626,1.41634726155747,260866.499926376,260866.724527736,260866.724527736,260869.924403615,3.2,260871.344526395,260871.344526395,260873.744436985,2.4,260875.349946378,260875.534662159,0.184715780778788,77,Shorter,Ring,78,L,Middle
302,Temporal,2314,2,1,94,800,2.5,3.33333333333333,1,m,m,-800,-400,-800,0,=,L,S,0.418294515762308,0.455716948341896,1.95734348668667,1.21166403592804,1.14885607504933,260877.099988483,260877.534647367,260877.534647367,260879.134459534,1.6,260881.12484995,260881.12484995,260883.524683867,2.4,260884.88334169,260885.374710998,0.491369307390414,78,Longer,Middle,78,L,Middle
302,Temporal,2314,2,1,95,800,3.75,3.33333333333333,1,r,r,0,1200,0,800,S,=,L,0.466232853392727,0.30842012780019,1.14288672301241,1.1568650583474,1.52112304041792,260886.683377235,260887.165078823,260887.165078823,260890.364559794,3.2,260891.54476674,260891.54476674,260893.944599375,2.4,260895.250111293,260895.422639757,0.172528463735944,66,Shorter,Index,77,L,Ring
302,Temporal,2314,2,1,96,800,5,5,1,m,m,-800,400,-800,0,L,S,=,0.248587587018496,0.382289366306607,1.93041338343449,1.68954473077714,1.79496698712748,260897.083433504,260897.344835648,260897.344835648,260899.74472314,2.4,260901.715061836,260901.715061836,260903.314959658,1.6,260905.150113131,260905.326677016,0.176563884946518,78,Shorter,Middle,66,L,Index
