Subject,Task,SequenceOrder,ListNo,RunNo,TrialNo,Aud_Probe_Dist,Aud_Standard_Vel,Aud_Probe_Vel,Main_Control,Aud_Std_StartCode,Aud_Probe_StartCode,Aud_Std_StartPt,Aud_Std_EndPt,Aud_Probe_StartPt,Aud_Probe_EndPt,RespIndex,RespMiddle,RespRing,ISI_Cross_Std,ISI_Cross_Probe,ISI_Std_Probe,ISI_Probe_Response,ITI,TrialOnset,StdOnset,StdOnsetByStop,StdOffset,StdDur,ProbeOnset,ProbeOnsetByStop,ProbeOffset,ProbeDur,RespWinStart,RespTime,RT,CorrectKC,CorrectResponse,CorrectFinger,SubjRespKC,SubjResponse,SubjRespFinger
226,Spatial,4132,2,4,1,800,5,5,1,l,l,-1600,-1200,-1600,-800,=,L,S,0.408754545469935,0.431608574482517,1.29654453783207,1.2165700441246,1.08484165287574,780809.864623093,780810.284439511,780810.284439511,780811.083997464,0.8,780812.414039733,780812.414039733,780814.014115847,1.6,780815.381324053,780815.814961956,0.433637902955525,78,Longer,Middle,78,L,Middle
226,Spatial,4132,2,4,2,400,1.66666666666667,1.25,2,m,m,-800,-400,-800,-400,=,L,S,0.293428037983472,0.294702079193428,1.40019104959533,1.08584907153269,1.74929870707485,780817.048065146,780817.354604076,780817.354604076,780819.754433877,2.4,780821.184570269,780821.184570269,780824.384168516,3.2,780825.614734251,780825.958973895,0.344239644357003,66,Equals to,Index,78,L,Middle
226,Spatial,4132,2,4,3,1200,20,7.5,1,r,r,0,1600,0,1200,=,L,S,0.301251757113606,0.440127752410764,1.88025043328934,1.58418275709756,1.13385551647048,780827.864790872,780828.184513167,780828.184513167,780828.984350539,0.8,780830.894469197,780830.894469197,780832.494296369,1.6,780834.231433735,780834.558740159,0.327306423103437,77,Shorter,Ring,78,L,Middle
226,Spatial,4132,2,4,4,800,5,5,1,m,m,-800,400,-800,0,L,S,=,0.432627554028447,0.253783154099058,1.18039087115048,1.79684344018666,1.75447602956191,780835.848143486,780836.29478538,780836.29478538,780838.694708856,2.4,780839.914881839,780839.914881839,780841.514696178,1.6,780843.464828534,780843.919111339,0.45428280509077,78,Shorter,Middle,78,S,Middle
226,Spatial,4132,2,4,5,1600,20,20,2,m,m,-800,800,-800,800,L,S,=,0.48338731780633,0.453533018979114,1.25752433539235,1.47994406319373,1.87948672741949,780845.814872452,780846.314782904,780846.314782904,780847.114611615,0.8,780848.404783629,780848.404783629,780849.204777873,0.8,780850.831542937,780851.247053913,0.415510976919904,77,Equals to,Ring,77,=,Ring
226,Spatial,4132,2,4,6,1200,20,7.5,1,r,r,0,1600,0,1200,=,L,S,0.307356118549411,0.334442789957025,1.66266078337041,1.44929299556438,1.36787108891109,780853.264960741,780853.584915324,780853.584915324,780854.384691424,0.8,780856.074842457,780856.074842457,780857.674728656,1.6,780859.281597248,780859.614969078,0.33337182959076,77,Shorter,Ring,78,L,Middle
226,Spatial,4132,2,4,7,1200,3.33333333333333,7.5,1,l,l,-1600,-800,-1600,-400,S,=,L,0.409349561151649,0.411927537298139,1.32468807085037,1.24635847396963,1.94874739559247,780861.131697627,780861.555024583,780861.555024583,780863.954899297,2.4,780865.305256042,780865.305256042,780866.905105348,1.6,780868.298323552,780868.710769585,0.412446032976732,77,Longer,Ring,66,S,Index
226,Spatial,4132,2,4,8,400,3.33333333333333,1.25,2,m,m,-800,0,-800,-400,S,=,L,0.251046888273023,0.296245734867113,1.78670366811491,1.06106404837856,1.02197677262328,780870.815090598,780871.08531761,780871.08531761,780873.485193607,2.4,780875.30522717,780875.30522717,780878.505276143,3.2,780879.715071863,780880.134933879,0.419862016569823,66,Shorter,Index,66,S,Index
226,Spatial,4132,2,4,9,800,5,5,1,r,r,0,400,0,800,L,S,=,0.413388851587127,0.482030230652861,1.82571417858456,1.86606818309367,1.84350197511743,780881.315150909,780881.74539083,780881.74539083,780882.545185215,0.8,780884.40529627,780884.40529627,780886.005133386,1.6,780888.01511716,780888.40694973,0.391832569497637,66,Longer,Index,78,S,Middle
226,Spatial,4132,2,4,10,1600,7.5,20,2,l,l,-1600,-400,-1600,0,L,S,=,0.209400562190312,0.418351293808407,1.62711020688419,1.49379135045737,1.85690890693953,780890.398542788,780890.625519895,780890.625519895,780892.225381392,1.6,780893.895656486,780893.895656486,780894.695411734,0.8,780896.348524599,780897.0309141,0.682389501365833,66,Longer,Index,78,S,Middle
226,Spatial,4132,2,4,11,1600,5,5,2,l,l,-1600,-400,-1600,0,S,=,L,0.241508088997719,0.36189511438329,1.34956624611362,1.37015297557374,1.30648981605014,780899.031931252,780899.285561676,780899.285561676,780901.685522365,2.4,780903.065839465,780903.065839465,780906.265429692,3.2,780907.781918371,780908.254961045,0.473042673780583,77,Longer,Ring,77,L,Ring
226,Spatial,4132,2,4,12,800,2.5,3.33333333333333,1,r,r,0,400,0,800,=,L,S,0.350880824715874,0.237935892856537,1.2612741036006,1.98964221857116,1.33017400503012,780909.71534679,780910.08549341,780910.08549341,780911.685514025,1.6,780912.975762069,780912.975762069,780915.375820923,2.4,780917.515312849,780917.958775318,0.443462469032966,78,Longer,Middle,78,L,Middle
226,Spatial,4132,2,4,13,1200,10,7.5,1,m,m,-800,0,-800,400,S,=,L,0.449795658759608,0.214459662818631,1.88654989134758,1.9722150308802,1.598267933647,780919.432031431,780919.896104968,780919.896104968,780920.695868877,0.8,780922.616129054,780922.616129054,780924.215703112,1.6,780926.332113436,780926.814936292,0.48282285570167,77,Longer,Ring,77,L,Ring
226,Spatial,4132,2,4,14,800,5,5,1,m,m,-800,400,-800,0,=,L,S,0.430271485331876,0.282192735792387,1.59550391960739,1.39313390366598,1.50422049580391,780928.56544332,780929.016034609,780929.016034609,780931.415917343,2.4,780933.046194824,780933.046194824,780934.646145504,1.6,780936.182103346,780936.638976949,0.456873603281565,77,Shorter,Ring,77,S,Ring
226,Spatial,4132,2,4,15,400,5,5,2,r,r,0,800,0,400,S,=,L,0.254260410115816,0.4668032293501,1.7432539578177,1.25559726063551,1.30589033488506,780938.298866622,780938.566207426,780938.566207426,780940.166041975,1.6,780941.936375904,780941.936375904,780942.736164836,0.8,780944.132217569,780944.558809452,0.426591882831417,66,Shorter,Index,66,S,Index
226,Spatial,4132,2,4,16,1200,5,5,1,m,m,-800,800,-800,400,S,=,L,0.303083969501865,0.399333681272377,1.05117652037136,1.28220432015388,1.59584057860018,780946.015573341,780946.336296217,780946.336296217,780949.536296108,3.2,780950.616505996,780950.616505996,780953.01640477,2.4,780954.448892366,780954.846863806,0.397971439640969,66,Shorter,Index,78,=,Middle
226,Spatial,4132,2,4,17,800,1.66666666666667,5,1,l,l,-1600,-1200,-1600,-800,S,=,L,0.330888728113781,0.350599087579671,1.59836298756966,1.39599925469919,1.22020528935242,780956.598944368,780956.946465132,780956.946465132,780959.34628114,2.4,780960.976452756,780960.976452756,780962.576349541,1.6,780964.132353685,780964.526943532,0.394589846604504,77,Longer,Ring,78,=,Middle
226,Spatial,4132,2,4,18,1200,5,5,1,r,r,0,1600,0,1200,=,L,S,0.296071225594284,0.488453849552025,1.17212074138191,1.93624728462292,1.50502814806698,780965.899035861,780966.206464054,780966.206464054,780969.406440527,3.2,780970.606752969,780970.606752969,780973.006756324,2.4,780975.082358576,780975.526882259,0.444523682584986,77,Shorter,Ring,66,=,Index
226,Spatial,4132,2,4,19,400,2.5,5,2,r,r,0,400,0,400,S,=,L,0.3450334502405,0.348320224629114,1.53494339646457,1.86382420621908,1.15620338449602,780977.182444038,780977.546884228,780977.546884228,780979.146738988,1.6,780980.71673646,780980.71673646,780981.516595968,0.8,780983.532421549,780983.935170375,0.402748825377785,78,Equals to,Middle,66,S,Index
226,Spatial,4132,2,4,20,1200,2.5,5,1,l,l,-1600,-800,-1600,-400,L,S,=,0.499654569173837,0.295557081069355,1.65197063285755,1.1438640039104,1.04419727216175,780985.232482758,780985.746733708,780985.746733708,780988.946751885,3.2,780990.636976061,780990.636976061,780993.036863928,2.4,780994.332489944,780995.103084962,0.770595017471351,66,Longer,Index,77,=,Ring
226,Spatial,4132,2,4,21,800,7.5,3.33333333333333,1,m,m,-800,400,-800,0,S,=,L,0.299384875579229,0.392709041827191,1.18396152056551,1.19582484673408,1.38069379325838,780996.299204475,780996.616994899,780996.616994899,780998.216866982,1.6,780999.427182356,780999.427182356,781001.8270529,2.4,781003.182609637,781003.790968521,0.60835888388101,66,Shorter,Index,66,S,Index
226,Spatial,4132,2,4,22,800,3.75,3.33333333333333,1,l,l,-1600,-400,-1600,-800,=,L,S,0.331947779060737,0.266332249623057,1.15880848141806,1.9166302402546,1.5160663889192,781005.332588431,781005.677417985,781005.677417985,781008.87698736,3.2,781010.077233075,781010.077233075,781012.4771203,2.4,781014.549285477,781015.022962377,0.473676899564452,77,Shorter,Ring,66,=,Index
226,Spatial,4132,2,4,23,800,15,5,1,r,r,0,1200,0,800,L,S,=,0.439119695734585,0.307217432308123,1.82922726778434,1.60059223740253,1.62754842274635,781016.699329459,781017.157404743,781017.157404743,781017.957181484,0.8,781019.807463161,781019.807463161,781021.407447846,1.6,781023.149404641,781023.615029389,0.465624747914262,78,Shorter,Middle,66,L,Index
226,Spatial,4132,2,4,24,800,1.25,3.33333333333333,1,l,l,-1600,-1200,-1600,-800,L,S,=,0.284721759403338,0.414906274848917,1.74552498668642,1.95203324896872,1.30995518174917,781025.399383611,781025.69748384,781025.69748384,781028.897405134,3.2,781030.677837915,781030.677837915,781033.077387657,2.4,781035.182753612,781035.951019926,0.768266314640641,66,Longer,Index,77,=,Ring
226,Spatial,4132,2,4,25,1600,5,5,2,r,r,0,1600,0,1600,=,L,S,0.262229902211576,0.482621405148021,1.69687160757203,1.66635847062619,1.00094064938399,781062.916354366,781063.198278146,781063.198278146,781066.397872543,3.2,781068.128279756,781068.128279756,781071.328171537,3.2,781073.149673135,781073.607194117,0.457520982017741,66,Equals to,Index,78,L,Middle
226,Spatial,4132,2,4,26,800,5,5,1,m,m,-800,400,-800,0,=,L,S,0.212793952621848,0.297961366100067,1.83869973955048,1.31711764338777,1.72487202726792,781074.766430043,781074.998301629,781074.998301629,781077.39811924,2.4,781079.268183182,781079.268183182,781080.868194814,1.6,781082.33307188,781082.871219427,0.538147547165863,77,Shorter,Ring,77,S,Ring
226,Spatial,4132,2,4,27,1600,10,20,2,l,l,-1600,0,-1600,0,L,S,=,0.413430737950262,0.218467425707339,1.88740694305758,1.28543718430163,1.33722743155914,781084.749822436,781085.178655961,781085.178655961,781086.778443673,1.6,781088.698267238,781088.698267238,781089.498279448,0.8,781090.933179029,781091.455056259,0.521877229795791,77,Equals to,Ring,78,S,Middle
226,Spatial,4132,2,4,28,1200,5,5,1,r,r,0,1600,0,1200,=,L,S,0.49472382647514,0.403225852390654,1.68912433560787,1.88994818360901,1.4675217614413,781092.949867284,781093.45856194,781093.45856194,781096.65840945,3.2,781098.368688894,781098.368688894,781100.768650867,2.4,781102.799865648,781103.271056973,0.471191324526444,77,Shorter,Ring,66,=,Index
226,Spatial,4132,2,4,29,1200,10,5,1,m,m,-800,800,-800,400,S,=,L,0.351407478033794,0.225611540475562,1.52715565606921,1.59450901456301,1.50824877665151,781104.883277738,781105.248819564,781105.248819564,781106.848710253,1.6,781108.40882349,781108.40882349,781110.80882043,2.4,781112.549998638,781113.030915063,0.480916424538009,66,Shorter,Index,66,S,Index
226,Spatial,4132,2,4,30,1200,2.5,5,1,r,r,0,800,0,1200,S,=,L,0.276360576330012,0.349955037128919,1.44780974333421,1.53078857879981,1.7862555688171,781114.683344529,781114.979023344,781114.979023344,781118.178871495,3.2,781119.659042438,781119.659042438,781122.058819628,2.4,781123.733346037,781124.143082254,0.409736217232421,77,Longer,Ring,77,L,Ring
226,Spatial,4132,2,4,31,1200,20,7.5,1,m,m,-800,800,-800,400,S,=,L,0.258800683712585,0.351341377303321,1.510228144102,1.85268447273559,1.97522413618565,781126.083382897,781126.359171978,781126.359171978,781127.159007104,0.8,781128.688862282,781128.688862282,781130.288886425,1.6,781132.283459201,781132.742874182,0.459414980607107,66,Shorter,Index,66,S,Index
226,Spatial,4132,2,4,32,800,15,5,1,m,m,-800,400,-800,0,L,S,=,0.241794157484231,0.276323078792536,1.27556600733773,1.61035457303555,1.46981238470707,781134.866806793,781135.119104173,781135.119104173,781135.918986778,0.8,781137.229240687,781137.229240687,781138.829119186,1.6,781140.60015283,781141.103088491,0.502935660537332,78,Shorter,Middle,66,L,Index
226,Spatial,4132,2,4,33,1200,5,5,1,r,r,0,800,0,1200,S,=,L,0.45920016806319,0.473716798668123,1.27619092111591,1.0973797978766,1.57617889752507,781142.716868355,781143.189302101,781143.189302101,781144.789144992,1.6,781146.08961283,781146.08961283,781148.489152306,2.4,781149.733567408,781150.623031478,0.889464069739915,77,Longer,Ring,77,L,Ring
226,Spatial,4132,2,4,34,1200,10,5,1,l,l,-1600,0,-1600,-400,S,=,L,0.473809576992687,0.385007551937993,1.50581154841687,1.32227354366439,1.87112089911465,781152.35027411,781152.83944489,781152.83944489,781154.439282327,1.6,781155.969735159,781155.969735159,781158.369278805,2.4,781159.833153363,781160.247053913,0.413900550105609,66,Shorter,Index,77,L,Ring
226,Spatial,4132,2,4,35,400,1.66666666666667,1.25,2,r,r,0,400,0,400,=,L,S,0.472256149813229,0.38038986967585,1.2700744698964,1.62431858123265,1.13037804885134,781162.266609051,781162.749659424,781162.749659424,781165.149628133,2.4,781166.449672833,781166.449672833,781169.649545686,3.2,781171.417031258,781171.991024597,0.573993338854052,66,Equals to,Index,78,L,Middle
226,Spatial,4132,2,4,36,400,3.33333333333333,1.25,2,r,r,0,800,0,400,S,=,L,0.308706728425008,0.402158678032571,1.41418197488762,1.65374255175712,1.96431761344237,781173.283727279,781173.609877903,781173.609877903,781176.009776998,2.4,781177.449816873,781177.449816873,781180.649742017,3.2,781182.450391796,781182.903089517,0.452697721542791,66,Shorter,Index,77,L,Ring
226,Spatial,4132,2,4,37,1200,20,7.5,1,l,l,-1600,0,-1600,-400,L,S,=,0.409623496617109,0.340190253790232,1.33697411621075,1.1190492649566,1.29595272452097,781185.017106134,781185.439986533,781185.439986533,781186.239882291,0.8,781187.600111402,781187.600111402,781189.200066573,1.6,781190.467176086,781191.598921912,1.13174582610372,78,Shorter,Middle,77,=,Ring
226,Spatial,4132,2,4,38,1200,6.66666666666667,7.5,1,r,r,0,1600,0,1200,=,L,S,0.256179808266029,0.40084865098212,1.74164616897158,1.91905480400794,1.75633988475105,781193.050501638,781193.319903548,781193.319903548,781195.720035224,2.4,781197.490053163,781197.490053163,781199.090024054,1.6,781201.150587277,781201.783175274,0.632587997359224,77,Shorter,Ring,77,S,Ring
226,Spatial,4132,2,4,39,800,1.66666666666667,5,1,r,r,0,400,0,800,=,L,S,0.29773750808222,0.426810582303498,1.02359115983756,1.35590824467919,1.07513977612106,781203.683910745,781204.000320116,781204.000320116,781206.400195792,2.4,781207.460327314,781207.460327314,781209.060189774,1.6,781210.550639232,781211.871114204,1.32047497166786,78,Longer,Middle,66,=,Index
226,Spatial,4132,2,4,40,1200,6.66666666666667,7.5,1,l,l,-1600,0,-1600,-400,L,S,=,0.37363394681466,0.214910032247835,1.77469800219141,1.2118356553451,1.30049503918808,781213.1006767,781213.490337715,781213.490337715,781215.890239697,2.4,781217.690408869,781217.690408869,781219.290241814,1.6,781220.650721195,781220.99900006,0.34827886428684,78,Shorter,Middle,78,S,Middle
226,Spatial,4132,2,4,41,800,5,5,1,r,r,0,400,0,800,S,=,L,0.351573341671574,0.289833055265466,1.63199503321315,1.23814031129565,1.21392543028844,781222.450724468,781222.820731859,781222.820731859,781223.620541963,0.8,781225.2805161,781225.2805161,781226.880515221,1.6,781228.267419174,781228.727161934,0.459742759703659,77,Longer,Ring,77,L,Ring
226,Spatial,4132,2,4,42,1200,10,5,1,l,l,-1600,0,-1600,-400,L,S,=,0.312190751816551,0.446418205727096,1.37291897199593,1.98885259073582,1.04212827898205,781230.100750164,781230.430732674,781230.430732674,781232.03060989,1.6,781233.440470944,781233.440470944,781235.84053044,2.4,781237.967425107,781238.431143345,0.463718238170259,78,Shorter,Middle,77,=,Ring
226,Spatial,4132,2,4,43,1200,2.5,5,1,m,m,-800,0,-800,400,L,S,=,0.403471439555169,0.233041077594478,1.60932872970565,1.2592877775579,1.1586654022138,781239.634137969,781240.05086025,781240.05086025,781243.25077962,3.2,781244.890722549,781244.890722549,781247.290697674,2.4,781248.684215381,781249.391011316,0.706795935402624,66,Longer,Index,78,S,Middle
226,Spatial,4132,2,4,44,1200,3.33333333333333,7.5,1,r,r,0,800,0,1200,L,S,=,0.420965136095485,0.335033547658707,1.01663151704675,1.1676320676027,1.88535453126347,781250.700892728,781251.141125316,781251.141125316,781253.540984952,2.4,781254.581049658,781254.581049658,781256.180869772,1.6,781257.500886056,781257.823272657,0.322386601241305,66,Longer,Index,78,S,Middle
226,Spatial,4132,2,4,45,1600,3.75,5,2,r,r,0,1200,0,1600,S,=,L,0.392440961949191,0.382874378643111,1.13361571409099,1.45357924155808,1.35369848990067,781259.867644087,781260.271069439,781260.271069439,781263.470949991,3.2,781264.631150294,781264.631150294,781267.831094365,3.2,781269.434297793,781269.919167159,0.484869366162457,77,Longer,Ring,78,=,Middle
226,Spatial,4132,2,4,46,400,2.5,1.25,2,r,r,0,800,0,400,L,S,=,0.396469152646725,0.251330783241408,1.96748794219587,1.42423829624975,1.27118543414597,781271.417709434,781271.831469749,781271.831469749,781275.031111624,3.2,781277.031310246,781277.031310246,781280.231221916,3.2,781281.80107828,781282.719117499,0.918039218755439,78,Shorter,Middle,66,L,Index
226,Spatial,4132,2,4,47,800,15,5,1,m,m,-800,400,-800,0,L,S,=,0.306026410324532,0.363527455224073,1.80967513452352,1.68748339012162,1.05437012656928,781284.1344623,781284.451605666,781284.451605666,781285.251468382,0.8,781287.09166853,781287.09166853,781288.69142705,1.6,781290.517830219,781290.903255051,0.385424832231365,78,Shorter,Middle,78,S,Middle
226,Spatial,4132,2,4,48,1600,5,5,2,l,l,-1600,0,-1600,0,=,L,S,0.388937043910859,0.245774653965072,1.99843003085714,1.18079278114962,1.28410046138041,781292.101177793,781292.501702773,781292.501702773,781295.701591987,3.2,781297.731931255,781297.731931255,781300.931742514,3.2,781302.267894826,781302.727109643,0.459214817499742,66,Equals to,Index,78,L,Middle
226,Spatial,4132,2,4,49,1200,10,7.5,1,r,r,0,800,0,1200,S,=,L,0.208536793716805,0.305055247394813,1.23602113731747,1.30726919185301,1.56948946509975,781334.768125838,781334.992409776,781334.992409776,781335.792225334,0.8,781337.052402025,781337.052402025,781338.652030299,1.6,781340.101428019,781340.567171481,0.465743462205864,77,Longer,Ring,77,L,Ring
226,Spatial,4132,2,4,50,400,2.5,5,2,r,r,0,400,0,400,L,S,=,0.250951630349886,0.344717130630049,1.57938326475834,1.18697905233765,1.49309232672896,781342.284851465,781342.552325675,781342.552325675,781344.152361046,1.6,781345.762512041,781345.762512041,781346.562368662,0.8,781347.90147877,781348.239134912,0.337656142422929,77,Equals to,Ring,78,S,Middle
226,Spatial,4132,2,4,51,800,1.25,3.33333333333333,1,l,l,-1600,-1200,-1600,-800,L,S,=,0.241069208078104,0.41994553173248,1.93478474979431,1.08772948548225,1.6115226890091,781349.884856406,781350.142580154,781350.142580154,781353.342274962,3.2,781355.302539168,781355.302539168,781357.702393351,2.4,781358.934886465,781359.327217882,0.392331416835077,66,Longer,Index,78,S,Middle
226,Spatial,4132,2,4,52,800,5,5,1,r,r,0,1200,0,800,S,=,L,0.344394396031282,0.365298542766031,1.21639050155526,1.02209415956979,1.19834351662654,781361.101606385,781361.462828288,781361.462828288,781363.862723533,2.4,781365.112685563,781365.112685563,781366.71254289,1.6,781367.884941418,781368.935175828,1.05023441009689,66,Shorter,Index,66,S,Index
226,Spatial,4132,2,4,53,1200,3.33333333333333,7.5,1,m,m,-800,0,-800,400,S,=,L,0.437606812387611,0.324540159711701,1.66072879450793,1.96882422589665,1.12782023602112,781370.285006092,781370.743013686,781370.743013686,781373.142825523,2.4,781374.822648652,781374.822648652,781376.422668625,1.6,781378.53507675,781378.943025536,0.407948786159977,77,Longer,Ring,66,S,Index
226,Spatial,4132,2,4,54,1600,20,20,2,l,l,-1600,0,-1600,0,=,L,S,0.414641994896484,0.303848419687681,1.58714587251681,1.34901798683958,1.10012647480163,781380.218431303,781380.653051778,781380.653051778,781381.452817612,0.8,781383.073026075,781383.073026075,781383.87286409,0.8,781385.368427486,781385.815244262,0.446816776413471,66,Equals to,Index,66,=,Index
226,Spatial,4132,2,4,55,1600,3.75,5,2,m,m,-800,400,-800,800,=,L,S,0.495184337387132,0.457602434559207,1.80695597856119,1.02710559500912,1.73014060957064,781387.068487411,781387.583113058,781387.583113058,781390.782960568,3.2,781392.623132486,781392.623132486,781395.822956898,3.2,781397.001869011,781397.383174761,0.381305749993771,78,Longer,Middle,66,=,Index
226,Spatial,4132,2,4,56,1200,5,5,1,m,m,-800,800,-800,400,=,L,S,0.290480424217636,0.269267708701089,1.2180094761928,1.18449329010243,1.26156590047797,781399.268515899,781399.573044361,781399.573044361,781402.773110017,3.2,781404.023314573,781404.023314573,781406.423208535,2.4,781407.751873966,781408.255235972,0.503362006624229,77,Shorter,Ring,77,S,Ring
226,Spatial,4132,2,4,57,1600,15,20,2,l,l,-1600,-400,-1600,0,L,S,=,0.37231817503727,0.310947930865824,1.79174930239888,1.50345857521196,1.88796408433378,781409.651962058,781410.043599214,781410.043599214,781410.843156526,0.8,781412.663567352,781412.663567352,781413.463461186,0.8,781415.118648423,781415.599206143,0.480557719711214,66,Longer,Index,77,=,Ring
226,Spatial,4132,2,4,58,1600,7.5,20,2,l,l,-1600,-400,-1600,0,=,L,S,0.27168581651187,0.350011122590275,1.22568360426923,1.33813885258752,1.46223289804181,781417.635344506,781417.923689462,781417.923689462,781419.523273786,1.6,781420.773604418,781420.773604418,781421.573376347,0.8,781423.051982461,781423.543191199,0.491208737599663,78,Longer,Middle,77,S,Ring
226,Spatial,4132,2,4,59,1200,6.66666666666667,7.5,1,l,l,-1600,0,-1600,-400,=,L,S,0.230524994412862,0.329797144016429,1.25805995471874,1.88918391469421,1.25825551049049,781425.168691249,781425.413660224,781425.413660224,781427.8136716,2.4,781429.103719464,781429.103719464,781430.703453602,1.6,781432.735391151,781433.215217186,0.479826035443693,77,Shorter,Ring,77,S,Ring
226,Spatial,4132,2,4,60,800,1.66666666666667,5,1,l,l,-1600,-1200,-1600,-800,=,L,S,0.305947317338095,0.496210391612431,1.27490072946141,1.5503097538731,1.28628093666364,781434.618788869,781434.94379253,781434.94379253,781437.343549188,2.4,781438.643769688,781438.643769688,781440.243622844,1.6,781441.935473533,781442.383340295,0.447866761824116,78,Longer,Middle,66,=,Index
226,Spatial,4132,2,4,61,400,5,5,2,r,r,0,400,0,400,S,=,L,0.406516997375748,0.421861464873483,1.05110588887841,1.11128421793568,1.84758691913977,781443.818800675,781444.243789707,781444.243789707,781445.043706638,0.8,781446.114040952,781446.114040952,781446.913887949,0.8,781448.185532001,781448.615199414,0.429667413118295,78,Equals to,Middle,78,=,Middle
226,Spatial,4132,2,4,62,800,1.66666666666667,5,1,l,l,-1600,-1200,-1600,-800,S,=,L,0.264282472949311,0.231253350384148,1.18332144962111,1.8487166821961,1.70871813268463,781450.618880619,781450.894148395,781450.894148395,781453.293804322,2.4,781454.504247376,781454.504247376,781456.104090266,1.6,781458.102205643,781458.503233044,0.40102740097791,77,Longer,Ring,66,S,Index
226,Spatial,4132,2,4,63,800,2.5,3.33333333333333,1,m,m,-800,-400,-800,0,L,S,=,0.262690555621838,0.487174472875984,1.00120842906944,1.38606537290133,1.30782553299813,781460.352290495,781460.634286135,781460.634286135,781462.234181637,1.6,781463.264111882,781463.264111882,781465.664046586,2.4,781467.202332923,781467.743261069,0.540928146801889,66,Longer,Index,66,L,Index
226,Spatial,4132,2,4,64,400,1.25,1.25,2,m,m,-800,-400,-800,-400,=,L,S,0.462513213046778,0.378335007266155,1.57555974641677,1.0976727111192,1.53259842517144,781469.218975384,781469.694264269,781469.694264269,781472.894151879,3.2,781474.49461112,781474.49461112,781477.694164134,3.2,781478.935680129,781479.295036934,0.359356804518029,66,Equals to,Index,78,L,Middle
226,Spatial,4132,2,4,65,1600,15,20,2,m,m,-800,400,-800,800,S,=,L,0.335552039104289,0.207382870363147,1.45546736625333,1.99406325981874,1.78534971879048,781480.985752855,781481.334426582,781481.334426582,781482.134245027,0.8,781483.624337098,781483.624337098,781484.424337117,0.8,781486.569120003,781486.911303977,0.342183974687941,77,Longer,Ring,78,=,Middle
226,Spatial,4132,2,4,66,800,2.5,3.33333333333333,1,m,m,-800,-400,-800,0,S,=,L,0.21865304312723,0.287148998138652,1.54358806203751,1.73307312472885,1.22714125808085,781488.852502225,781489.08456982,781489.08456982,781490.684435167,1.6,781492.264667511,781492.264667511,781494.664475819,2.4,781496.552489008,781496.999090526,0.446601518196985,77,Longer,Ring,77,L,Ring
226,Spatial,4132,2,4,67,1200,3.33333333333333,7.5,1,m,m,-800,0,-800,400,=,L,S,0.425436266361499,0.458881506807815,1.40391536836595,1.88202856221088,1.81451956447746,781498.368993381,781498.804646839,781498.804646839,781501.204695427,2.4,781502.634999278,781502.634999278,781504.234826128,1.6,781506.269254628,781506.92720582,0.657951192115434,78,Longer,Middle,78,L,Middle
226,Spatial,4132,2,4,68,400,10,5,2,l,l,-1600,-800,-1600,-1200,S,=,L,0.233314759104325,0.261622436695111,1.11019804228958,1.54610151003442,1.67899037634092,781508.885894521,781509.134869674,781509.134869674,781509.934872581,0.8,781511.075128934,781511.075128934,781511.874939359,0.8,781513.569240334,781514.103258516,0.534018181730062,66,Shorter,Index,78,=,Middle
226,Spatial,4132,2,4,69,800,7.5,3.33333333333333,1,l,l,-1600,-400,-1600,-800,S,=,L,0.329215825442113,0.423292621647763,1.51961915744053,1.05344053604121,1.64610317486791,781515.935945433,781516.284973967,781516.284973967,781517.884827765,1.6,781519.435192465,781519.435192465,781521.83507552,2.4,781523.035965772,781523.415499749,0.379533977131359,66,Shorter,Index,77,L,Ring
226,Spatial,4132,2,4,70,400,10,5,2,m,m,-800,0,-800,-400,S,=,L,0.29325756361025,0.480902680609816,1.07932205687429,1.36324824016612,1.68552583327943,781525.202710073,781525.515143421,781525.515143421,781526.315039821,0.8,781527.435353187,781527.435353187,781528.235192164,0.8,781529.752676292,781530.135296065,0.382619773154147,66,Shorter,Index,66,S,Index
226,Spatial,4132,2,4,71,1200,6.66666666666667,7.5,1,m,m,-800,800,-800,400,=,L,S,0.272623161512621,0.274700302143829,1.65029726106298,1.52498641772124,1.46862096719353,781531.969450973,781532.255474925,781532.255474925,781534.655020817,2.4,781536.335313279,781536.335313279,781537.935274867,1.6,781539.602805833,781540.111293968,0.508488134946674,77,Shorter,Ring,77,S,Ring
226,Spatial,4132,2,4,72,1200,10,7.5,1,l,l,-1600,-800,-1600,-400,L,S,=,0.324291455392416,0.210439423548873,1.02742788973763,1.10699175675817,1.85047808665933,781541.73611873,781542.075429846,781542.075429846,781542.875232251,0.8,781543.92539613,781543.92539613,781545.525209185,1.6,781546.769491458,781547.287116008,0.517624549916945,66,Longer,Index,66,L,Index
226,Spatial,4132,2,4,73,1200,10,5,1,m,m,-800,800,-800,400,L,S,=,0.357272248266532,0.336072012231854,1.27782847570576,1.04295403993553,1.44898360915907,781566.5529577,781566.925869955,781566.925869955,781568.525723111,1.6,781569.826060062,781569.826060062,781572.225613011,2.4,781573.402967612,781573.831531708,0.42856409586966,78,Shorter,Middle,66,L,Index
226,Spatial,4132,2,4,74,1600,10,20,2,r,r,0,1600,0,1600,L,S,=,0.406698488144737,0.334572536458005,1.62207166373015,1.83841662366602,1.45309977171055,781575.436346756,781575.85598962,781575.85598962,781577.45576033,1.6,781579.10614537,781579.10614537,781579.905949058,0.8,781581.886351344,781582.415281924,0.528930580359884,77,Equals to,Ring,66,L,Index
226,Spatial,4132,2,4,75,400,2.5,1.25,2,l,l,-1600,-800,-1600,-1200,L,S,=,0.27671076745372,0.487696930401945,1.4026853858151,1.94447147122303,1.85458246726047,781584.01977232,781584.316047185,781584.316047185,781587.51607274,3.2,781588.956235804,781588.956235804,781592.156154211,3.2,781594.253160945,781594.663193021,0.410032075364143,78,Shorter,Middle,77,=,Ring
226,Spatial,4132,2,4,76,800,7.5,3.33333333333333,1,r,r,0,1200,0,800,S,=,L,0.302005023171298,0.294226825356057,1.73557541309037,1.8829943804088,1.51788338805676,781596.669869828,781596.98598443,781596.98598443,781598.586018518,1.6,781600.356263585,781600.356263585,781602.756181928,2.4,781604.786496218,781605.335409565,0.548913346836343,66,Shorter,Index,77,L,Ring
226,Spatial,4132,2,4,77,800,3.75,3.33333333333333,1,r,r,0,1200,0,800,L,S,=,0.225142615333984,0.394939568401563,1.93214040435053,1.78128715763537,1.04045816660312,781607.003258388,781607.24651877,781607.24651877,781610.446464125,3.2,781612.416371323,781612.416371323,781614.816386549,2.4,781616.753244433,781617.279193478,0.525949045084417,78,Shorter,Middle,78,S,Middle
226,Spatial,4132,2,4,78,1600,6.66666666666667,5,2,l,l,-1600,0,-1600,0,S,=,L,0.36693228739018,0.34004424835722,1.48444416756664,1.94580440495107,1.05293942788457,781618.46995408,781618.856532738,781618.856532738,781621.256359973,2.4,781622.766765236,781622.766765236,781625.966650601,3.2,781628.069987162,781628.519508621,0.449521459406242,78,Equals to,Middle,78,=,Middle
226,Spatial,4132,2,4,79,400,5,5,2,r,r,0,800,0,400,=,L,S,0.479047161028177,0.462040013793354,1.10242929701757,1.57687104146444,1.13912399984143,781629.720078943,781630.216894937,781630.216894937,781631.816732053,1.6,781632.956946701,781632.956946701,781633.756771242,0.8,781635.486731503,781636.079317371,0.592585868667811,77,Shorter,Ring,77,S,Ring
226,Spatial,4132,2,4,80,1200,5,5,1,r,r,0,800,0,1200,L,S,=,0.238269415871768,0.228216706992669,1.66161519816286,1.59293316961731,1.9972719279865,781637.370092922,781637.626802141,781637.626802141,781639.226669092,1.6,781640.917098261,781640.917098261,781643.316972013,2.4,781645.053431845,781645.567313596,0.513881750986911,66,Longer,Index,66,L,Index
226,Spatial,4132,2,4,81,1200,5,5,1,m,m,-800,0,-800,400,L,S,=,0.298924468207187,0.201588738219925,1.84788873374787,1.40194344362895,1.38371188147833,781647.720172296,781648.037219101,781648.037219101,781649.637010984,1.6,781651.517182119,781651.517182119,781653.917064211,2.4,781655.470236539,781655.911125611,0.440889072720893,66,Longer,Index,66,L,Index
226,Spatial,4132,2,4,82,800,3.75,3.33333333333333,1,r,r,0,1200,0,800,=,L,S,0.351961542926615,0.342647840123553,1.76658345107879,1.48615777733924,1.58640848181779,781657.453569983,781657.817336168,781657.817336168,781661.017175979,3.2,781662.817218434,781662.817218434,781665.217069087,2.4,781666.853600331,781667.407243264,0.553642933140509,77,Shorter,Ring,66,=,Index
226,Spatial,4132,2,4,83,1600,5,5,2,l,l,-1600,-400,-1600,0,=,L,S,0.317904925609334,0.455879084672195,1.7085073155663,1.44080162448137,1.33205092901876,781669.136999204,781669.467095919,781669.467095919,781671.867110182,2.4,781673.60737725,781673.60737725,781676.80718081,3.2,781678.38704415,781678.823278431,0.436234281281941,78,Longer,Middle,66,=,Index
226,Spatial,4132,2,4,84,400,1.25,1.25,2,l,l,-1600,-1200,-1600,-1200,S,=,L,0.250617272056616,0.350507697198995,1.90870862003537,1.28026091432767,1.14034433941502,781680.303746713,781680.567464649,781680.567464649,781683.767417061,3.2,781685.707529438,781685.707529438,781688.907474472,3.2,781690.337065546,781691.199208196,0.862142650526948,78,Equals to,Middle,77,L,Ring
226,Spatial,4132,2,4,85,800,7.5,3.33333333333333,1,m,m,-800,400,-800,0,=,L,S,0.298203765947927,0.221804916015581,1.17764377445825,1.28036072212192,1.65060321395585,781692.487151874,781692.797757612,781692.797757612,781694.397582538,1.6,781695.617589666,781695.617589666,781698.017634405,2.4,781699.45385606,781700.151323662,0.69746760209091,77,Shorter,Ring,77,S,Ring
226,Spatial,4132,2,4,86,400,5,5,2,l,l,-1600,-1200,-1600,-1200,S,=,L,0.314900559467314,0.368700713232364,1.68273595605104,1.67678106762178,1.61086389837285,781701.953850685,781702.287986941,781702.287986941,781703.0878349,0.8,781704.797649502,781704.797649502,781705.59764888,0.8,781707.437155819,781707.815372262,0.378216442652047,78,Equals to,Middle,78,=,Middle
226,Spatial,4132,2,4,87,1200,10,7.5,1,r,r,0,800,0,1200,=,L,S,0.238967154925187,0.26758372906809,1.64039508460009,1.20330454642758,1.80319715145322,781709.570606423,781709.828118328,781709.828118328,781710.627946719,0.8,781712.288221126,781712.288221126,781713.887751876,1.6,781715.23723448,781715.695393217,0.458158736699261,78,Longer,Middle,78,L,Middle
226,Spatial,4132,2,4,88,800,1.25,3.33333333333333,1,l,l,-1600,-1200,-1600,-800,S,=,L,0.453487941785321,0.489393502884222,1.50425748060678,1.74410058544042,1.387955821738,781717.653986961,781718.118006709,781718.118006709,781721.31793089,3.2,781722.858098253,781722.858098253,781725.258064074,2.4,781727.15400653,781727.623578125,0.469571594381705,77,Longer,Ring,78,=,Middle
226,Spatial,4132,2,4,89,1200,2.5,5,1,m,m,-800,0,-800,400,L,S,=,0.229016977238649,0.303518085208026,1.62794365650432,1.48543827801336,1.98852099456698,781729.154076048,781729.398366623,781729.398366623,781732.598306845,3.2,781734.268463242,781734.268463242,781736.668345335,2.4,781738.304117481,781738.791367278,0.487249796744436,66,Longer,Index,78,S,Middle
226,Spatial,4132,2,4,90,1600,6.66666666666667,5,2,m,m,-800,800,-800,800,L,S,=,0.308039318641702,0.439518865392813,1.18449241348855,1.61220228418982,1.86983492052152,781740.920814478,781741.248669749,781741.248669749,781743.648248362,2.4,781744.868492884,781744.868492884,781748.068356755,3.2,781749.837461416,781750.311452701,0.473991285660304,77,Equals to,Ring,66,L,Index
226,Spatial,4132,2,4,91,800,2.5,3.33333333333333,1,l,l,-1600,-1200,-1600,-800,=,L,S,0.247414480860826,0.215269287963847,1.40406064055461,1.17570659043467,1.50932066465145,781752.337549636,781752.598694098,781752.598694098,781754.198595374,1.6,781755.638807521,781755.638807521,781758.03864438,2.4,781759.354253549,781759.767453081,0.413199531962164,78,Longer,Middle,78,L,Middle
226,Spatial,4132,2,4,92,1200,5,5,1,r,r,0,800,0,1200,L,S,=,0.389007347491006,0.420360336252631,1.17052582357079,1.87060281392368,1.70179211816752,781761.42092569,781761.828926108,781761.828926108,781763.428808778,1.6,781764.618776955,781764.618776955,781767.018681182,2.4,781769.037582294,781769.519394736,0.481812442420051,66,Longer,Index,66,L,Index
226,Spatial,4132,2,4,93,800,3.75,3.33333333333333,1,m,m,-800,400,-800,0,L,S,=,0.325095059289206,0.207623557840007,1.4895783460029,1.52908767469626,1.53745728658061,781771.37100096,781771.708844727,781771.708844727,781774.908729771,3.2,781776.429048462,781776.429048462,781778.828853241,2.4,781780.504391478,781781.087225466,0.58283398731146,78,Shorter,Middle,77,=,Ring
226,Spatial,4132,2,4,94,800,1.25,3.33333333333333,1,m,m,-800,-400,-800,0,L,S,=,0.33100006183173,0.26958504322669,1.25798968713544,1.84694028149595,1.84623939632481,781782.771090336,781783.11928318,781783.11928318,781786.318857688,3.2,781787.608965862,781787.608965862,781790.008936496,2.4,781792.004416804,781792.415383618,0.410966814262792,66,Longer,Index,78,S,Middle
226,Spatial,4132,2,4,95,800,5,5,1,l,l,-1600,-1200,-1600,-800,=,L,S,0.310115245058592,0.241710580771105,1.88790939344097,1.66968811315472,1.67740667235926,781794.404492385,781794.729174602,781794.729174602,781795.529144466,0.8,781797.439419996,781797.439419996,781799.039238506,1.6,781800.8544681,781801.415382656,0.560914555680938,78,Longer,Middle,78,L,Middle
226,Spatial,4132,2,4,96,800,15,5,1,m,m,-800,400,-800,0,=,L,S,0.349960166563223,0.382960424211619,1.23507182482604,1.48700819249036,1.33642194702951,781803.237803904,781803.599352063,781803.599352063,781804.399217987,0.8,781805.669605811,781805.669605811,781807.269456722,1.6,781808.904516125,781809.455396309,0.550880184862763,77,Shorter,Ring,77,S,Ring
