Subject,Task,SequenceOrder,ListNo,RunNo,TrialNo,Aud_Probe_Dist,Aud_Standard_Vel,Aud_Probe_Vel,Main_Control,Aud_Std_StartCode,Aud_Probe_StartCode,Aud_Std_StartPt,Aud_Std_EndPt,Aud_Probe_StartPt,Aud_Probe_EndPt,RespIndex,RespMiddle,RespRing,ISI_Cross_Std,ISI_Cross_Probe,ISI_Std_Probe,ISI_Probe_Response,ITI,TrialOnset,StdOnset,StdOnsetByStop,StdOffset,StdDur,ProbeOnset,ProbeOnsetByStop,ProbeOffset,ProbeDur,RespWinStart,RespTime,RT,CorrectKC,CorrectResponse,CorrectFinger,SubjRespKC,SubjResponse,SubjRespFinger
208,Temporal,1243,2,2,1,1200,2.5,5,1,r,r,0,800,0,1200,L,S,=,0.258820775481003,0.263455150880628,1.27294540399489,1.24374746667664,1.17920754623074,857698.061753715,857698.331627915,857698.331627915,857701.543171357,3.2,857702.853600757,857702.853600757,857705.2533888,2.4,857706.645141722,857707.211697783,0.566556060453877,78,Shorter,Middle,77,=,Ring
208,Temporal,1243,2,2,2,1600,20,20,2,l,l,-1600,0,-1600,0,=,L,S,0.231547704800652,0.300427189657423,1.5569638625925,1.65672154837779,1.30820635174251,857708.52851752,857708.773746439,857708.773746439,857709.57327027,0.8,857711.163577791,857711.163577791,857711.963421461,0.8,857713.761844726,857714.131859185,0.370014458545484,66,Equals to,Index,66,=,Index
208,Temporal,1243,2,2,3,800,5,5,1,m,m,-800,400,-800,0,=,L,S,0.422950408401494,0.210829620731991,1.54834282997252,1.46325154705296,1.75190384477558,857715.578562609,857716.013587206,857716.013587206,857718.413459941,2.4,857719.993560509,857719.993560509,857721.593455764,1.6,857723.211895397,857723.571717339,0.359821942052804,77,Shorter,Ring,77,S,Ring
208,Temporal,1243,2,2,4,1200,5,5,1,r,r,0,1600,0,1200,=,L,S,0.28886907330641,0.330864457916403,1.95241273966231,1.57325075354352,1.92379350098584,857725.478619679,857725.783741663,857725.783741663,857728.983577762,3.2,857730.963998619,857730.963998619,857733.363555684,2.4,857735.078606077,857735.45982037,0.38121429271996,77,Shorter,Ring,66,=,Index
208,Temporal,1243,2,2,5,800,1.25,3.33333333333333,1,l,l,-1600,-1200,-1600,-800,S,=,L,0.346389652367158,0.361966455739276,1.73695857708231,1.87877270583771,1.88047725548247,857737.528674071,857737.894196627,857737.894196627,857741.093711604,3.2,857742.864033233,857742.864033233,857745.263839241,2.4,857747.295374775,857748.243691351,0.948316576192155,66,Shorter,Index,78,=,Middle
208,Temporal,1243,2,2,6,800,15,5,1,r,r,0,1200,0,800,L,S,=,0.456759115732776,0.335715069740843,1.72668050928833,1.64549696345266,1.98045780790982,857750.278707515,857750.754171431,857750.754171431,857751.554048465,0.8,857753.304193583,857753.304193583,857754.904074402,1.6,857756.695405059,857757.243886399,0.548481340170838,66,Longer,Index,77,=,Ring
208,Temporal,1243,2,2,7,400,3.33333333333333,1.25,2,m,m,-800,0,-800,-400,L,S,=,0.372028993116488,0.398107154316477,1.26751891878804,1.66576612279042,1.17061775534145,857759.378777482,857759.7642568,857759.7642568,857762.164167389,2.4,857763.464244513,857763.464244513,857766.664156001,3.2,857768.478799649,857768.811928632,0.333128982572816,66,Longer,Index,66,L,Index
208,Temporal,1243,2,2,8,800,3.75,3.33333333333333,1,r,r,0,1200,0,800,S,=,L,0.413816300377017,0.345001198193829,1.16021285464015,1.84968689912758,1.61984605741476,857770.128842364,857770.554290064,857770.554290064,857773.754247105,3.2,857774.934442182,857774.934442182,857777.33423632,2.4,857779.328864884,857780.219773328,0.890908443485387,66,Shorter,Index,78,=,Middle
208,Temporal,1243,2,2,9,800,1.66666666666667,5,1,l,l,-1600,-1200,-1600,-800,=,L,S,0.343207534914518,0.327091560706027,1.37907568578467,1.72250088361321,1.51986340467021,857781.978919148,857782.334793267,857782.334793267,857784.734251205,2.4,857786.144640537,857786.144640537,857787.744421265,1.6,857789.612249049,857790.251720701,0.639471652102657,77,Shorter,Ring,77,S,Ring
208,Temporal,1243,2,2,10,800,15,5,1,m,m,-800,400,-800,0,S,=,L,0.209906795636518,0.256885375414652,1.14589986971674,1.17269894460234,1.23358654515005,857791.912238879,857792.13447978,857792.13447978,857792.934525234,0.8,857794.104903774,857794.104903774,857795.704680332,1.6,857797.012279012,857797.603795278,0.591516266693361,77,Longer,Ring,66,S,Index
208,Temporal,1243,2,2,11,1200,5,5,1,r,r,0,1600,0,1200,S,=,L,0.368861602133815,0.367809432835183,1.29343832306216,1.11360805582757,1.7943788849711,857798.995639661,857799.374796296,857799.374796296,857802.574529417,3.2,857803.905066356,857803.905066356,857806.304565678,2.4,857807.562312712,857807.939785172,0.377472460037097,66,Shorter,Index,66,S,Index
208,Temporal,1243,2,2,12,800,5,5,1,l,l,-1600,-1200,-1600,-800,=,L,S,0.348047011579314,0.436112513052568,1.16232274300968,1.23137581352397,1.69449617276708,857809.879035246,857810.245120168,857810.245120168,857811.044645923,0.8,857812.234821145,857812.234821145,857813.834871989,1.6,857815.212350294,857815.63575805,0.423407756257802,78,Longer,Middle,78,L,Middle
208,Temporal,1243,2,2,13,1600,5,5,2,r,r,0,1600,0,1600,=,L,S,0.331568442358464,0.32665106733963,1.92321106473024,1.3305629752173,1.61172185677636,857817.47906784,857817.825011217,857817.825011217,857821.024822293,3.2,857822.9853714,857822.9853714,857826.184887339,3.2,857827.662480942,857828.787698147,1.1252172049135,66,Equals to,Index,77,S,Ring
208,Temporal,1243,2,2,14,1200,5,5,1,r,r,0,800,0,1200,S,=,L,0.451822919484053,0.314800346145339,1.05851088122691,1.85989484271836,1.03503176104714,857830.56247985,857831.025290699,857831.025290699,857832.625165423,1.6,857833.715168342,857833.715168342,857836.114981087,2.4,857838.129110875,857838.691745672,0.562634796951897,77,Longer,Ring,77,L,Ring
208,Temporal,1243,2,2,15,400,3.33333333333333,1.25,2,r,r,0,800,0,400,=,L,S,0.24216512420896,0.261279070982474,1.21675746679946,1.14327000182305,1.34245053079884,857839.879189552,857840.135617343,857840.135617343,857842.535303371,2.4,857843.775314198,857843.775314198,857846.975165054,3.2,857848.279248212,857848.819639425,0.54039121279493,78,Longer,Middle,66,=,Index
208,Temporal,1243,2,2,16,800,2.5,3.33333333333333,1,l,l,-1600,-1200,-1600,-800,S,=,L,0.278426185416319,0.30701852917242,1.50802783618316,1.09673251572334,1.05450216396044,857850.295944199,857850.585284656,857850.585284656,857852.185370788,1.6,857853.71554753,857853.71554753,857856.115491804,2.4,857857.362583725,857858.563841654,1.20125792827457,77,Longer,Ring,78,=,Middle
208,Temporal,1243,2,2,17,1200,6.66666666666667,7.5,1,l,l,-1600,0,-1600,-400,L,S,=,0.417849530346318,0.459481885713233,1.6876649674316,1.98821464464705,1.91159262933901,857859.762609839,857860.195722136,857860.195722136,857862.595531352,2.4,857864.315686309,857864.315686309,857865.915597283,1.6,857868.046016477,857868.435688372,0.389671895187348,78,Shorter,Middle,78,S,Middle
208,Temporal,1243,2,2,18,1200,10,5,1,m,m,-800,800,-800,400,S,=,L,0.284524622657023,0.289559091527365,1.71376746115247,1.16110823649456,1.51318561453561,857870.47937002,857870.7758031,857870.7758031,857872.375707658,1.6,857874.12580209,857874.12580209,857876.525615797,2.4,857877.846011904,857878.275873872,0.429861968499608,77,Longer,Ring,77,L,Ring
208,Temporal,1243,2,2,19,800,7.5,3.33333333333333,1,m,m,-800,400,-800,0,S,=,L,0.332314015226942,0.238140522614912,1.24044683546633,1.57733886588836,1.27758825850008,857879.946058773,857880.296104564,857880.296104564,857881.895601062,1.6,857883.166022943,857883.166022943,857885.565839216,2.4,857887.29610813,857887.627495157,0.331387026235461,77,Longer,Ring,78,=,Middle
208,Temporal,1243,2,2,20,800,7.5,3.33333333333333,1,r,r,0,1200,0,800,=,L,S,0.394966812520055,0.389513911929963,1.9336590297531,1.64564032956023,1.28511248524827,857889.046137081,857889.456043856,857889.456043856,857891.055740855,1.6,857893.02623097,857893.02623097,857895.426077399,2.4,857897.229452561,857897.731699618,0.502247056574561,78,Longer,Middle,78,L,Middle
208,Temporal,1243,2,2,21,1200,6.66666666666667,7.5,1,l,l,-1600,0,-1600,-400,=,L,S,0.338547319114225,0.430342185474689,1.4360958185043,1.49493046797123,1.61438201740727,857899.162851851,857899.516085451,857899.516085451,857901.915907178,2.4,857903.376129227,857903.376129227,857904.975967059,1.6,857906.629511076,857908.019802457,1.39029138104524,77,Shorter,Ring,78,L,Middle
208,Temporal,1243,2,2,22,1200,6.66666666666667,7.5,1,r,r,0,1600,0,1200,=,L,S,0.447292236117236,0.469508700450303,1.46785732604413,1.01662201015145,1.15490628836368,857909.779569943,857910.246139355,857910.246139355,857912.646182115,2.4,857914.146424195,857914.146424195,857915.746222889,1.6,857916.912892994,857917.979710245,1.06681725103408,77,Shorter,Ring,66,=,Index
208,Temporal,1243,2,2,23,800,1.66666666666667,5,1,l,l,-1600,-1200,-1600,-800,=,L,S,0.36364161218062,0.498661714580856,1.5094183028639,1.04088329252998,1.2462698764146,857919.279623084,857919.65652031,857919.65652031,857922.056417105,2.4,857923.606281778,857923.606281778,857925.206288031,1.6,857926.396322185,857927.38765856,0.991336375009269,77,Shorter,Ring,77,S,Ring
208,Temporal,1243,2,2,24,400,1.66666666666667,1.25,2,m,m,-800,-400,-800,-400,S,=,L,0.302236724406154,0.260441346876294,1.74581083255735,1.69586709106568,1.80985574421723,857928.796309431,857929.116497232,857929.116497232,857931.516296182,2.4,857933.286646684,857933.286646684,857936.486541169,3.2,857938.329700252,857938.787784443,0.45808419061359,77,Longer,Ring,77,L,Ring
208,Temporal,1243,2,2,25,1600,6.66666666666667,5,2,l,l,-1600,0,-1600,0,S,=,L,0.482540334928335,0.288850316767359,1.26893972071095,1.28497153634975,1.74207481103991,857970.296483466,857970.797422578,857970.797422578,857973.196839133,2.4,857974.497169049,857974.497169049,857977.69702215,3.2,857979.129453812,857979.563687348,0.434233535430394,77,Longer,Ring,77,L,Ring
208,Temporal,1243,2,2,26,1200,3.33333333333333,7.5,1,r,r,0,800,0,1200,S,=,L,0.29303518815598,0.204373706809377,1.1064460142438,1.82040968662336,1.33506522077576,857981.446582161,857981.757313365,857981.757313365,857984.157249939,2.4,857985.297220313,857985.297220313,857986.897125513,1.6,857988.863267514,857989.29967737,0.43640985514503,66,Shorter,Index,66,S,Index
208,Temporal,1243,2,2,27,1200,20,7.5,1,l,l,-1600,0,-1600,-400,=,L,S,0.250270082383698,0.212102292531593,1.88903201665881,1.38051190502591,1.47222565165584,857990.779970351,857991.047596373,857991.047596373,857991.847093256,0.8,857993.76741734,857993.76741734,857995.367223733,1.6,857996.896643739,857997.443674413,0.547030674060807,78,Longer,Middle,66,=,Index
208,Temporal,1243,2,2,28,1200,5,5,1,m,m,-800,800,-800,400,L,S,=,0.254677030201145,0.346185239918869,1.90145094634321,1.77166272347122,1.15670978340738,857999.063370877,857999.337722509,857999.337722509,858002.537224333,3.2,858004.467794827,858004.467794827,858006.867277788,2.4,858008.780032587,858009.459749152,0.67971656518057,78,Shorter,Middle,77,=,Ring
208,Temporal,1243,2,2,29,1200,2.5,5,1,m,m,-800,0,-800,400,=,L,S,0.416005461695709,0.206984813082384,1.08692455882127,1.94146406644255,1.81321820649031,858010.763435535,858011.197650476,858011.197650476,858014.397503899,3.2,858015.517824838,858015.517824838,858017.917597804,2.4,858019.996804831,858020.427572085,0.430767253856175,77,Shorter,Ring,78,L,Middle
208,Temporal,1243,2,2,30,800,3.75,3.33333333333333,1,l,l,-1600,-400,-1600,-800,=,L,S,0.315934954134202,0.372566047073405,1.0819973272359,1.15459163051669,1.75625993174148,858022.396797563,858022.727748908,858022.727748908,858025.927560626,3.2,858027.047958879,858027.047958879,858029.447788626,2.4,858030.746793666,858031.123848442,0.377054775948636,77,Shorter,Ring,66,=,Index
208,Temporal,1243,2,2,31,800,7.5,3.33333333333333,1,l,l,-1600,-400,-1600,-800,L,S,=,0.225184805258838,0.381691670821686,1.32941584460863,1.92763001774013,1.49872674942239,858033.030200286,858033.268083806,858033.268083806,858034.867900464,1.6,858036.228232196,858036.228232196,858038.627794073,2.4,858040.713577122,858041.275563657,0.56198653485626,66,Longer,Index,66,L,Index
208,Temporal,1243,2,2,32,800,5,5,1,m,m,-800,400,-800,0,L,S,=,0.239122193323558,0.310707223385276,1.36356609701046,1.37148325584451,1.20318095553983,858042.930241638,858043.188229488,858043.188229488,858045.588123717,2.4,858046.978394281,858046.978394281,858048.577835601,1.6,858050.096913918,858050.539757134,0.442843215423636,78,Shorter,Middle,78,S,Middle
208,Temporal,1243,2,2,33,1600,3.75,5,2,m,m,-800,400,-800,800,L,S,=,0.413812900526026,0.398775700830138,1.89057143829855,1.2805483555261,1.95388661928362,858051.896978977,858052.327991947,858052.327991947,858055.528035284,3.2,858057.448215328,858057.448215328,858060.648099868,3.2,858062.080358347,858063.507608297,1.42724994965829,77,Equals to,Ring,78,S,Middle
208,Temporal,1243,2,2,34,1200,10,5,1,m,m,-800,800,-800,400,L,S,=,0.37334597344594,0.345926071345596,1.20725110454668,1.67768345444571,1.06194990311074,858065.613699073,858065.998612497,858065.998612497,858067.598085897,1.6,858068.838422659,858068.838422659,858071.238239253,2.4,858073.063710606,858073.819896387,0.756185781443492,66,Longer,Index,66,L,Index
208,Temporal,1243,2,2,35,1200,5,5,1,r,r,0,800,0,1200,S,=,L,0.315347571143033,0.247337076714454,1.55994118270795,1.5053193428427,1.28035078193549,858075.030380898,858075.35869878,858075.35869878,858076.958478867,1.6,858078.558444448,858078.558444448,858080.958333223,2.4,858082.613768366,858083.771616351,1.15784798422828,77,Longer,Ring,77,L,Ring
208,Temporal,1243,2,2,36,800,3.75,3.33333333333333,1,m,m,-800,400,-800,0,=,L,S,0.393233493132396,0.445730079477304,1.32961306199201,1.06607513872267,1.49355222797349,858085.213791336,858085.61855662,858085.61855662,858088.81841325,3.2,858090.178563728,858090.178563728,858092.578573125,2.4,858093.797168218,858096.051630812,2.25446259428281,77,Shorter,Ring,66,=,Index
208,Temporal,1243,2,2,37,400,5,5,2,r,r,0,800,0,400,S,=,L,0.396433491370512,0.494015261797622,1.65150143954163,1.22879920242713,1.70914774495738,858097.680524986,858098.089001305,858098.089001305,858099.688806094,1.6,858101.368825852,858101.368825852,858102.168653803,0.8,858103.547229942,858104.483611677,0.936381734791212,66,Shorter,Index,66,S,Index
208,Temporal,1243,2,2,38,800,2.5,3.33333333333333,1,m,m,-800,-400,-800,0,S,=,L,0.458413331418017,0.396157622625102,1.89185481500866,1.76192061126514,1.73341011019968,858106.330570588,858106.809086934,858106.809086934,858108.408882099,1.6,858110.339169325,858110.339169325,858112.738973088,2.4,858114.647264571,858115.083523649,0.436259078327566,77,Longer,Ring,77,L,Ring
208,Temporal,1243,2,2,39,1600,6.66666666666667,5,2,m,m,-800,800,-800,800,=,L,S,0.312083610940915,0.469082987399462,1.56084816519749,1.0936844810014,1.97333043929446,858116.963980368,858117.289292978,858117.289292978,858119.688803207,2.4,858121.269079254,858121.269079254,858124.468970852,3.2,858125.714018866,858126.107611377,0.393592510721646,78,Longer,Middle,78,L,Middle
208,Temporal,1243,2,2,40,1200,10,7.5,1,r,r,0,800,0,1200,S,=,L,0.463416230269433,0.406226234523766,1.95405124811301,1.37421535290219,1.38293624481009,858128.230706576,858128.709481167,858128.709481167,858129.509230842,0.8,858131.499405038,858131.499405038,858133.09923934,1.6,858134.614023404,858135.131598373,0.517574968980625,77,Longer,Ring,77,L,Ring
208,Temporal,1243,2,2,41,800,5,5,1,r,r,0,400,0,800,S,=,L,0.323437975084409,0.370839979917063,1.50767682638048,1.53833587025059,1.83134654400161,858136.6640794,858136.999431183,858136.999431183,858137.799251114,0.8,858139.339390999,858139.339390999,858140.939179748,1.6,858142.614099901,858143.115588436,0.501488534733653,77,Longer,Ring,77,L,Ring
208,Temporal,1243,2,2,42,1200,2.5,5,1,l,l,-1600,-800,-1600,-400,=,L,S,0.2605718314002,0.224637836311606,1.33009939794291,1.04843476760948,1.27346128166138,858145.097465377,858145.369212419,858145.369212419,858148.569231696,3.2,858149.929756229,858149.929756229,858152.329486207,2.4,858153.530783985,858154.09982327,0.569039285066538,77,Shorter,Ring,66,=,Index
208,Temporal,1243,2,2,43,400,2.5,1.25,2,l,l,-1600,-800,-1600,-1200,L,S,=,0.479713061712135,0.462057543166794,1.75058901005366,1.95896319228745,1.45926642892259,858155.514176765,858156.009575258,858156.009575258,858159.209393393,3.2,858160.999788877,858160.999788877,858164.199568515,3.2,858166.297546924,858166.731686786,0.434139861259609,77,Equals to,Ring,66,L,Index
208,Temporal,1243,2,2,44,1200,5,5,1,r,r,0,800,0,1200,L,S,=,0.353693288063125,0.351135617412533,1.31601408123205,1.95512897423198,1.05487241585931,858168.330907751,858168.699821503,858168.699821503,858170.29972189,1.6,858171.649897677,858171.649897677,858174.04968989,2.4,858176.147570134,858176.595571202,0.448001067619771,66,Longer,Index,77,=,Ring
208,Temporal,1243,2,2,45,800,2.5,3.33333333333333,1,r,r,0,400,0,800,S,=,L,0.328272619224413,0.312297801327016,1.88153940968265,1.92926650521607,1.42347953193161,858177.797627927,858178.140065582,858178.140065582,858179.739884806,1.6,858181.640130544,858181.640130544,858184.039716161,2.4,858186.114337967,858186.57158581,0.457247842685319,77,Longer,Ring,78,=,Middle
208,Temporal,1243,2,2,46,800,1.66666666666667,5,1,r,r,0,400,0,800,=,L,S,0.403676233954516,0.479408040851866,1.80361343531411,1.78081499600895,1.01823388151476,858188.130990774,858188.550088843,858188.550088843,858190.949858279,2.4,858192.780169534,858192.780169534,858194.379973681,1.6,858196.314339297,858196.827568684,0.513229387113824,77,Shorter,Ring,66,=,Index
208,Temporal,1243,2,2,47,1200,5,5,1,m,m,-800,0,-800,400,S,=,L,0.494372474852547,0.364147980310521,1.00178469457442,1.3161418840669,1.33224074545055,858197.997738668,858198.510393143,858198.510393143,858200.110200498,1.6,858201.150333807,858201.150333807,858203.550190181,2.4,858205.014426557,858205.371581896,0.357155338977464,77,Longer,Ring,77,L,Ring
208,Temporal,1243,2,2,48,1600,7.5,20,2,l,l,-1600,-400,-1600,0,L,S,=,0.391876171208258,0.419376506981104,1.823813292478,1.20741118922349,1.45007486230733,858206.847783692,858207.25020616,858207.25020616,858208.850091791,1.6,858210.700382264,858210.700382264,858211.500157604,0.8,858212.847742309,858214.795464118,1.94772180961445,78,Shorter,Middle,78,S,Middle
208,Temporal,1243,2,2,49,1200,10,5,1,l,l,-1600,0,-1600,-400,S,=,L,0.340968892085432,0.267675365746692,1.45311609104504,1.91607825747951,1.05375815152289,858246.731313276,858247.091004713,858247.091004713,858248.690758815,1.6,858250.180859066,858250.180859066,858252.580680793,2.4,858254.64799247,858255.043563608,0.395571137894876,77,Longer,Ring,77,L,Ring
208,Temporal,1243,2,2,50,1200,10,7.5,1,r,r,0,800,0,1200,L,S,=,0.241566337852533,0.40170426801972,1.1170775386275,1.63047328137176,1.98442962565338,858256.248017364,858256.500935904,858256.500935904,858257.300744607,0.8,858258.451197181,858258.451197181,858260.050959303,1.6,858261.83134773,858262.235573781,0.40422605117783,66,Longer,Index,66,L,Index
208,Temporal,1243,2,2,51,400,1.66666666666667,1.25,2,r,r,0,400,0,400,=,L,S,0.469092689718142,0.349898147178946,1.52602955203918,1.01012142687117,1.65999618433465,858264.364720907,858264.851211746,858264.851211746,858267.251017433,2.4,858268.8012799,858268.8012799,858272.00096843,3.2,858273.164719881,858273.699636435,0.534916554577649,78,Longer,Middle,78,L,Middle
208,Temporal,1243,2,2,52,1600,15,20,2,l,l,-1600,-400,-1600,0,L,S,=,0.38870927295912,0.461283878276568,1.06163936151833,1.18859528142675,1.76699375392096,858275.498132131,858275.901411461,858275.901411461,858276.701189687,0.8,858277.791316115,858277.791316115,858278.591018953,0.8,858279.931432454,858280.443528127,0.512095673358999,77,Equals to,Ring,77,=,Ring
208,Temporal,1243,2,2,53,400,10,5,2,m,m,-800,0,-800,-400,S,=,L,0.213607199000126,0.334886902903069,1.26353657121623,1.18585303661556,1.46959862828151,858282.364835754,858282.591425445,858282.591425445,858283.391235751,0.8,858284.691437025,858284.691437025,858285.491161678,0.8,858286.831505792,858287.315436761,0.483930968795903,78,Equals to,Middle,66,S,Index
208,Temporal,1243,2,2,54,800,15,5,1,m,m,-800,400,-800,0,L,S,=,0.379896231149916,0.29720896233074,1.0176131960367,1.96265838904337,1.89060164984019,858288.931498539,858289.331510502,858289.331510502,858290.131314393,0.8,858291.181604288,858291.181604288,858292.781405228,1.6,858294.89816851,858296.003523046,1.10535453574266,66,Longer,Index,77,=,Ring
208,Temporal,1243,2,2,55,1200,2.5,5,1,m,m,-800,0,-800,400,L,S,=,0.216546201195652,0.316827964846132,1.62991528727092,1.85577521623214,1.19988537351773,858298.031578949,858298.26157217,858298.26157217,858301.461465372,3.2,858303.131633305,858303.131633305,858305.531497378,2.4,858307.531615971,858307.931534469,0.399918498354964,78,Shorter,Middle,66,L,Index
208,Temporal,1243,2,2,56,400,5,5,2,l,l,-1600,-1200,-1600,-1200,S,=,L,0.356520680353366,0.487229644777985,1.71227685873045,1.59688285701928,1.94913440707089,858309.28163419,858309.651932202,858309.651932202,858310.45146694,0.8,858312.191766329,858312.191766329,858312.991448956,0.8,858314.748290848,858315.315683136,0.567392288357951,78,Equals to,Middle,77,L,Ring
208,Temporal,1243,2,2,57,400,1.25,1.25,2,m,m,-800,-400,-800,-400,=,L,S,0.212846393578063,0.428249651785493,1.81234013128838,1.47031717323183,1.20666324211929,858317.414986066,858317.641709531,858317.641709531,858320.841741319,3.2,858322.691668965,858322.691668965,858325.891770688,3.2,858327.515053052,858327.97154648,0.456493427976966,66,Equals to,Index,78,L,Middle
208,Temporal,1243,2,2,58,1200,20,7.5,1,r,r,0,1600,0,1200,=,L,S,0.367853004113072,0.396314243803476,1.96942513531237,1.15468347053952,1.80281468631046,858329.315050836,858329.702138975,858329.702138975,858330.501840209,0.8,858332.502227773,858332.502227773,858334.101731008,1.6,858335.398373663,858336.31545248,0.917078816797584,78,Longer,Middle,66,=,Index
208,Temporal,1243,2,2,59,1200,6.66666666666667,7.5,1,m,m,-800,800,-800,400,S,=,L,0.286702866108973,0.46945899773028,1.2899190600118,1.38546146657103,1.25323941445999,858338.26514273,858338.561987063,858338.561987063,858340.962011858,2.4,858342.282270626,858342.282270626,858343.881825189,1.6,858345.415120482,858345.795599176,0.380478694103658,66,Shorter,Index,78,=,Middle
208,Temporal,1243,2,2,60,1600,20,20,2,m,m,-800,800,-800,800,L,S,=,0.380546105773685,0.254990365961994,1.1205606449518,1.13172710669172,1.84829270725087,858347.198480105,858347.59218382,858347.59218382,858348.39201947,0.8,858349.55228826,858349.55228826,858350.351966718,0.8,858351.631816358,858352.035589437,0.40377307892777,77,Equals to,Ring,77,=,Ring
208,Temporal,1243,2,2,61,400,5,5,2,r,r,0,800,0,400,S,=,L,0.28474091230799,0.286113092579056,1.10494137886526,1.45673262816313,1.16110579297994,858354.031844717,858354.332299033,858354.332299033,858355.932315872,1.6,858357.07239211,858357.07239211,858357.872238026,0.8,858359.465219804,858359.811505815,0.346286011277698,66,Shorter,Index,66,S,Index
208,Temporal,1243,2,2,62,800,5,5,1,l,l,-1600,-1200,-1600,-800,L,S,=,0.416832075670901,0.208321368619132,1.64648270999242,1.12123144754604,1.2665558444783,858361.115219193,858361.542138411,858361.542138411,858362.34215788,0.8,858364.02248625,858364.02248625,858365.622348783,1.6,858366.881916688,858367.2835744,0.401657711481676,66,Longer,Index,66,L,Index
208,Temporal,1243,2,2,63,1200,3.33333333333333,7.5,1,l,l,-1600,-800,-1600,-400,=,L,S,0.47651892558896,0.450400133299434,1.9614875993845,1.63448207066042,1.51474625422218,858368.698587734,858369.192564484,858369.192564484,858371.592492396,2.4,858373.59219986,858373.59219986,858375.192288238,1.6,858376.981975429,858377.547624158,0.565648728050292,77,Shorter,Ring,66,=,Index
208,Temporal,1243,2,2,64,400,2.5,5,2,r,r,0,400,0,400,L,S,=,0.277497464539735,0.235096802764862,1.55935711921782,1.21067379999182,1.9271803799629,858379.215320919,858379.512813593,858379.512813593,858381.112643083,1.6,858382.702744328,858382.702744328,858383.502671728,0.8,858384.865311985,858385.219484927,0.354172942461446,78,Shorter,Middle,78,S,Middle
208,Temporal,1243,2,2,65,800,3.75,3.33333333333333,1,r,r,0,1200,0,800,=,L,S,0.327953870290322,0.360304783858418,1.12907912125406,1.90892294718135,1.58381190028617,858387.298692508,858387.642672578,858387.642672578,858390.842651755,3.2,858392.012825623,858392.012825623,858394.412749686,2.4,858396.465410072,NaN,NaN,77,Shorter,Ring,999,Missed,Missed
208,Temporal,1243,2,2,66,1600,10,20,2,r,r,0,1600,0,1600,S,=,L,0.356396651605546,0.229583146714383,1.29989631645538,1.82362302523053,1.4961103063449,858401.182083922,858401.553064601,858401.553064601,858403.152838272,1.6,858404.4831869,858404.4831869,858405.282956465,0.8,858407.248758737,858407.651556579,0.402797841234133,66,Shorter,Index,66,S,Index
208,Temporal,1243,2,2,67,800,1.25,3.33333333333333,1,l,l,-1600,-1200,-1600,-800,L,S,=,0.230757844973129,0.45582632356643,1.09644664112437,1.80678756487145,1.96849789516367,858409.298810884,858409.543198982,858409.543198982,858412.743047592,3.2,858413.873235755,858413.873235755,858416.273076089,2.4,858418.215535232,858418.555433116,0.339897884055972,78,Shorter,Middle,78,S,Middle
208,Temporal,1243,2,2,68,400,1.25,1.25,2,l,l,-1600,-1200,-1600,-1200,=,L,S,0.399639269956301,0.349437438499468,1.17679032062151,1.98616726566482,1.78931483761519,858420.665541615,858421.083454962,858421.083454962,858424.282999452,3.2,858425.493410534,858425.493410534,858428.692989992,3.2,858430.832224161,858431.675455996,0.843231834820472,66,Equals to,Index,77,S,Ring
208,Temporal,1243,2,2,69,1200,5,5,1,m,m,-800,800,-800,400,L,S,=,0.46872674123711,0.370134269384962,1.17506011332842,1.35204114136869,1.14626102286655,858433.615629017,858434.103216677,858434.103216677,858437.303134901,3.2,858438.503311121,858438.503311121,858440.903366713,2.4,858442.398918705,858442.819355516,0.420436810236424,78,Shorter,Middle,77,=,Ring
208,Temporal,1243,2,2,70,800,1.25,3.33333333333333,1,m,m,-800,-400,-800,0,L,S,=,0.387665110302469,0.410517531694013,1.73022207402436,1.93065403661149,1.69591376194593,858444.115653558,858444.513483427,858444.513483427,858447.713524518,3.2,858449.473553862,858449.473553862,858451.873372702,2.4,858453.948986411,858454.379435446,0.430449035950005,78,Shorter,Middle,77,=,Ring
208,Temporal,1243,2,2,71,800,7.5,3.33333333333333,1,m,m,-800,400,-800,0,S,=,L,0.444153284475066,0.441143441807827,1.89107613339515,1.77772234560132,1.4351926142328,858456.232376349,858456.693902388,858456.693902388,858458.293407548,1.6,858460.223962323,858460.223962323,858462.623748121,2.4,858464.549102061,858464.915284893,0.366182831814513,77,Longer,Ring,78,=,Middle
208,Temporal,1243,2,2,72,1200,20,7.5,1,r,r,0,1600,0,1200,L,S,=,0.493146870769301,0.374185568822434,1.98138742506917,1.7747673500803,1.80762984264083,858466.499111218,858467.00396668,858467.00396668,858467.80356654,0.8,858469.814053267,858469.814053267,858471.413840412,1.6,858473.332423539,858473.843448055,0.51102451607585,66,Longer,Index,66,L,Index
208,Temporal,1243,2,2,73,800,1.25,3.33333333333333,1,l,l,-1600,-1200,-1600,-800,L,S,=,0.228660129201673,0.273464948139785,1.41157211421041,1.22211793434131,1.5931469947969,858501.865963854,858502.114130356,858502.114130356,858505.31404858,3.2,858506.754419411,858506.754419411,858509.154098382,2.4,858510.515969677,858510.947431484,0.431461807340384,78,Shorter,Middle,78,S,Middle
208,Temporal,1243,2,2,74,1600,10,20,2,l,l,-1600,0,-1600,0,L,S,=,0.300930438647241,0.446042772662533,1.75912508770836,1.80514547919571,1.9055931576194,858512.682690719,858512.99449308,858512.99449308,858514.594428756,1.6,858516.394507324,858516.394507324,858517.194350031,0.8,858519.149329091,858519.47534718,0.326018088730052,78,Shorter,Middle,78,S,Middle
208,Temporal,1243,2,2,75,1600,5,5,2,l,l,-1600,0,-1600,0,=,L,S,0.434741681260804,0.203334466521605,1.30282862578636,1.67321527236861,1.48241492901953,858521.53271842,858521.984664995,858521.984664995,858525.184448162,3.2,858526.514770805,858526.514770805,858529.71461332,3.2,858531.532737668,858531.947364116,0.414626447018236,66,Equals to,Index,78,L,Middle
208,Temporal,1243,2,2,76,1600,5,5,2,l,l,-1600,-400,-1600,0,L,S,=,0.439443180545736,0.290873061492145,1.37162923114163,1.14121122020209,1.31035096640216,858533.582779228,858534.034795096,858534.034795096,858536.434597896,2.4,858537.834831924,858537.834831924,858541.034687271,3.2,858542.316146053,858542.723429667,0.407283613574691,66,Longer,Index,66,L,Index
208,Temporal,1243,2,2,77,1600,7.5,20,2,l,l,-1600,-400,-1600,0,L,S,=,0.366438092258364,0.215951398169822,1.53713752284081,1.45193063267522,1.88456330763566,858544.16620006,858544.545057707,858544.545057707,858546.144876932,1.6,858547.715076593,858547.715076593,858548.514651431,0.8,858550.116201811,858551.411288183,1.29508637206163,78,Shorter,Middle,78,S,Middle
208,Temporal,1243,2,2,78,1200,20,7.5,1,m,m,-800,800,-800,400,L,S,=,0.379277812680559,0.250099277683794,1.56625865894906,1.83108873871795,1.00916368003713,858553.449533538,858553.845078335,858553.845078335,858554.644911739,0.8,858556.244827917,858556.244827917,858557.844829999,1.6,858559.832883729,858560.331397936,0.498514206265099,66,Longer,Index,77,=,Ring
208,Temporal,1243,2,2,79,800,15,5,1,m,m,-800,400,-800,0,=,L,S,0.473196589962356,0.37822976443689,1.07798306983831,1.88174104890001,1.00504669610858,858561.48294088,858561.97519749,858561.97519749,858562.774998173,0.8,858563.875192005,858563.875192005,858565.474964072,1.6,858567.49963193,858570.147394656,2.64776272582822,78,Longer,Middle,78,L,Middle
208,Temporal,1243,2,2,80,1600,3.75,5,2,r,r,0,1200,0,1600,=,L,S,0.313440740514566,0.295200503610985,1.44472826810856,1.06336900833978,1.10652033155702,858571.29966967,858571.625468616,858571.625468616,858574.825261407,3.2,858576.295592244,858576.295592244,858579.495306117,3.2,858580.71632166,858581.747354748,1.03103308787104,66,Equals to,Index,66,=,Index
208,Temporal,1243,2,2,81,1600,15,20,2,m,m,-800,400,-800,800,S,=,L,0.377720846210189,0.469233544622088,1.01023272836769,1.72063526730536,1.92146520184158,858582.99970005,858583.395272115,858583.395272115,858584.195268808,0.8,858585.245287305,858585.245287305,858586.045139316,0.8,858587.916407381,858588.307281015,0.390873634256423,78,Equals to,Middle,78,=,Middle
208,Temporal,1243,2,2,82,400,5,5,2,r,r,0,400,0,400,S,=,L,0.462890838064413,0.253103560098309,1.93856381959126,1.66673101617612,1.07551889080319,858590.366395493,858590.845720259,858590.845720259,858591.645205594,0.8,858593.615670686,858593.615670686,858594.415540341,0.8,858596.233060941,858596.555323081,0.322262140573002,78,Equals to,Middle,78,=,Middle
208,Temporal,1243,2,2,83,400,2.5,5,2,r,r,0,400,0,400,L,S,=,0.249332997448692,0.33734924149096,1.14980672696783,1.43284494452603,1.52735167960725,858597.766462348,858598.035838985,858598.035838985,858599.63529795,1.6,858600.815767311,858600.815767311,858601.615524686,0.8,858603.19981506,858603.53138998,0.331574920215644,78,Shorter,Middle,78,S,Middle
208,Temporal,1243,2,2,84,1200,3.33333333333333,7.5,1,m,m,-800,0,-800,400,S,=,L,0.492886006432888,0.421743789382546,1.79456017434928,1.01407034026136,1.55501940001807,858605.199816886,858605.70588177,858605.70588177,858608.105734936,2.4,858609.925870998,858609.925870998,858611.525738022,1.6,858612.683156844,858613.043531207,0.360374362906441,66,Shorter,Index,78,=,Middle
208,Temporal,1243,2,2,85,1200,10,7.5,1,m,m,-800,0,-800,400,=,L,S,0.442498823841239,0.38808150086467,1.71045487999096,1.84063338061603,1.05329688621068,858614.749861815,858615.205570432,858615.205570432,858616.005618132,0.8,858617.745752628,858617.745752628,858619.34578647,1.6,858621.333208862,858621.787359381,0.454150518286042,78,Longer,Middle,78,L,Middle
208,Temporal,1243,2,2,86,800,5,5,1,m,m,-800,400,-800,0,L,S,=,0.346028305520392,0.404259525154881,1.39345591125975,1.88216467086023,1.81368350484166,858622.983265051,858623.346059187,858623.346059187,858625.745784032,2.4,858627.176142958,858627.176142958,858628.775893852,1.6,858630.799918452,858631.339335857,0.539417404565029,78,Shorter,Middle,66,L,Index
208,Temporal,1243,2,2,87,1600,5,5,2,l,l,-1600,-400,-1600,0,S,=,L,0.358923209485297,0.200398602215531,1.74277575667356,1.98773483954462,1.98294515561021,858633.299953901,858633.676365755,858633.676365755,858636.07609477,2.4,858637.856076385,858637.856076385,858641.055936223,3.2,858643.183355086,858644.387291242,1.20393615670037,77,Longer,Ring,77,L,Ring
208,Temporal,1243,2,2,88,800,5,5,1,r,r,0,400,0,800,L,S,=,0.223034503025282,0.435559987339115,1.63348112313262,1.58244160731312,1.61350619004213,858646.516687631,858646.7562791,858646.7562791,858647.556045777,0.8,858649.216214317,858649.216214317,858650.81604894,1.6,858652.549616658,858653.179421267,0.629804609226994,66,Longer,Index,66,L,Index
208,Temporal,1243,2,2,89,1200,10,5,1,l,l,-1600,0,-1600,-400,=,L,S,0.460492620346174,0.362229957849852,1.89992957937403,1.87690440603148,1.1828761336641,858654.950078099,858655.42610374,858655.42610374,858657.026172228,1.6,858658.946502086,858658.946502086,858661.346341778,2.4,858663.383456973,858663.755351055,0.371894082403742,78,Longer,Middle,78,L,Middle
208,Temporal,1243,2,2,90,1200,10,7.5,1,l,l,-1600,-800,-1600,-400,=,L,S,0.434163133129497,0.432470025216157,1.99731962553294,1.59213606198828,1.05562420760459,858665.083459168,858665.536681571,858665.536681571,858666.336502785,0.8,858668.366786836,858668.366786836,858669.966503083,1.6,858671.700133999,858672.155343163,0.455209164414555,78,Longer,Middle,78,L,Middle
208,Temporal,1243,2,2,91,800,5,5,1,r,r,0,1200,0,800,S,=,L,0.379718534039103,0.245523139927995,1.30540301803327,1.06530147909367,1.22610560512094,858673.350183771,858673.74680133,858673.74680133,858676.146295518,2.4,858677.486529014,858677.486529014,858679.086445121,1.6,858680.300214763,858681.443318644,1.14310388092417,66,Shorter,Index,78,=,Middle
208,Temporal,1243,2,2,92,800,2.5,3.33333333333333,1,m,m,-800,-400,-800,0,S,=,L,0.38148672719523,0.341296004107671,1.16960329136181,1.72489477540073,1.32728640930742,858682.8168847,858683.216749414,858683.216749414,858684.816663917,1.6,858686.016883445,858686.016883445,858688.416668922,2.4,858690.283572475,858690.71524922,0.431676744599827,77,Longer,Ring,77,L,Ring
208,Temporal,1243,2,2,93,400,2.5,1.25,2,r,r,0,800,0,400,=,L,S,0.324954447911635,0.33786089307543,1.51482540923666,1.7628330771194,1.46669829978655,858692.200264726,858692.536939817,858692.536939817,858695.736782011,3.2,858697.276832714,858697.276832714,858700.476824723,3.2,858702.40032414,858703.043291247,0.642967106890865,66,Equals to,Index,78,L,Middle
208,Temporal,1243,2,2,94,400,10,5,2,l,l,-1600,-800,-1600,-1200,L,S,=,0.224982129303608,0.4915938870003,1.86571029512164,1.11226995971588,1.11014778199165,858704.66699196,858704.907317423,858704.907317423,858705.706797945,0.8,858707.597307026,858707.597307026,858708.396749693,0.8,858709.667039759,858710.515305938,0.84826617827639,77,Equals to,Ring,78,S,Middle
208,Temporal,1243,2,2,95,1200,3.33333333333333,7.5,1,m,m,-800,0,-800,400,=,L,S,0.242092107208743,0.297652897545369,1.14154298899437,1.38771860262871,1.04815175987798,858711.767039791,858712.02715135,858712.02715135,858714.427168125,2.4,858715.607237126,858715.607237126,858717.207082657,1.6,858718.733683136,858720.499301454,1.76561831822619,77,Shorter,Ring,78,L,Middle
208,Temporal,1243,2,2,96,800,1.66666666666667,5,1,l,l,-1600,-1200,-1600,-800,S,=,L,0.220071634449939,0.251964263097264,1.58635209021103,1.7806988786705,1.75625278838633,858721.700440365,858721.937327153,858721.937327153,858724.337152409,2.4,858725.947262065,858725.947262065,858727.547107275,1.6,858729.483756679,858729.835317012,0.351560332113877,66,Shorter,Index,78,=,Middle
