Subject,Task,SequenceOrder,ListNo,RunNo,TrialNo,Aud_Probe_Dist,Aud_Standard_Vel,Aud_Probe_Vel,Main_Control,Aud_Std_StartCode,Aud_Probe_StartCode,Aud_Std_StartPt,Aud_Std_EndPt,Aud_Probe_StartPt,Aud_Probe_EndPt,RespIndex,RespMiddle,RespRing,ISI_Cross_Std,ISI_Cross_Probe,ISI_Std_Probe,ISI_Probe_Response,ITI,TrialOnset,StdOnset,StdOnsetByStop,StdOffset,StdDur,ProbeOnset,ProbeOnsetByStop,ProbeOffset,ProbeDur,RespWinStart,RespTime,RT,CorrectKC,CorrectResponse,CorrectFinger,SubjRespKC,SubjResponse,SubjRespFinger
231,Temporal,2314,2,0,1,800,2.5,3.33333333333333,1,l,l,-1600,-1200,-1600,-800,S,=,L,0.389674914903744,0.277057126089602,1.88983465345832,1.57641502542566,1.04775237757592,1226286.5211784,1226286.92327017,1226286.92327017,1226288.52119403,1.6,1226290.44122162,1226290.44122162,1226292.84125289,2.4,1226294.57124663,1226295.71966318,1.14841655269265,77,Longer,Ring,77,L,Ring
231,Temporal,2314,2,0,2,800,2.5,3.33333333333333,1,m,m,-800,-400,-800,0,=,L,S,0.409436612020302,0.483844560464891,1.54381874655445,1.35714689196786,1.41547933012133,1226296.95460557,1226297.38132273,1226297.38132273,1226298.98134847,1.6,1226300.56136428,1226300.56136428,1226302.96140292,2.4,1226304.45464114,1226305.17565073,0.721009590197355,78,Longer,Middle,78,L,Middle
231,Temporal,2314,2,0,3,1600,10,20,2,r,r,0,1600,0,1600,=,L,S,0.446878856142815,0.221297252878804,1.92787569748582,1.84133594579793,1.35995299523029,1226306.77133946,1226307.23146705,1226307.23146705,1226308.83148703,1.6,1226310.80152255,1226310.80152255,1226311.60152802,0.8,1226313.58803742,1226314.74368389,1.15564647084102,77,Shorter,Ring,77,S,Ring
231,Temporal,2314,2,0,4,1600,5,5,2,l,l,-1600,0,-1600,0,S,=,L,0.453572617307015,0.309437936826734,1.72751806684391,1.20974770992097,1.57391483233778,1226316.28806127,1226316.76161893,1226316.76161893,1226319.96164448,3.2,1226321.71167869,1226321.71167869,1226324.91172125,3.2,1226326.27142974,1226327.03167472,0.760244977427647,78,Equals to,Middle,78,=,Middle
231,Temporal,2314,2,0,5,1200,20,7.5,1,l,l,-1600,0,-1600,-400,=,L,S,0.221398990848104,0.254359013061725,1.62301119341846,1.00430680394837,1.76337267695259,1226328.78813648,1226329.02178723,1226329.02178723,1226329.82179046,0.8,1226331.47181235,1226331.47181235,1226333.07184805,1.6,1226334.22149331,1226336.67967648,2.45818316517398,78,Longer,Middle,66,=,Index
231,Temporal,2314,2,0,6,800,7.5,3.33333333333333,1,l,l,-1600,-400,-1600,-800,L,S,=,0.447344284941951,0.464460486194855,1.07734403393415,1.19452873996063,1.01331866525102,1226338.62153603,1226339.0819293,1226339.0819293,1226340.68195216,1.6,1226341.8019675,1226341.8019675,1226344.20200358,2.4,1226345.55489823,1226346.30383269,0.748934455681592,66,Longer,Index,66,L,Index
231,Temporal,2314,2,0,7,1200,5,5,1,m,m,-800,800,-800,400,=,L,S,0.312321801573636,0.381322355551397,1.8541371500983,1.69376003730203,1.72050598488966,1226347.50491065,1226347.83205682,1226347.83205682,1226351.03210002,3.2,1226352.92213004,1226352.92213004,1226355.32216837,2.4,1226357.17160817,1226357.60767404,0.436065865214914,77,Shorter,Ring,66,=,Index
231,Temporal,2314,2,0,8,800,2.5,3.33333333333333,1,m,m,-800,-400,-800,0,L,S,=,0.232231554341755,0.308158990968749,1.88759433707585,1.64898703391962,1.97325510985579,1226359.50497824,1226359.75222969,1226359.75222969,1226361.35224998,1.6,1226363.27228079,1226363.27228079,1226365.67231719,2.4,1226367.47169113,1226368.65575522,1.18406408862211,66,Longer,Index,77,=,Ring
231,Temporal,2314,2,0,9,1200,2.5,5,1,m,m,-800,0,-800,400,=,L,S,0.421034581597297,0.421621586114612,1.48174730522381,1.51390230716188,1.74778531926021,1226370.82170393,1226371.26239944,1226371.26239944,1226374.46243751,3.2,1226375.97246839,1226375.97246839,1226378.37250255,2.4,1226380.03842574,NaN,NaN,77,Shorter,Ring,999,Missed,Missed
231,Temporal,2314,2,0,10,400,10,5,2,l,l,-1600,-800,-1600,-1200,=,L,S,0.321282526563831,0.42236804676628,1.99763378416553,1.34014727465902,1.07890892494759,1226384.92180685,1226385.26260379,1226385.26260379,1226386.06260638,0.8,1226388.08265303,1226388.08265303,1226388.88265273,0.8,1226390.37182029,1226390.79174871,0.419928422663361,66,Equals to,Index,77,S,Ring
231,Temporal,2314,2,0,11,800,3.75,3.33333333333333,1,r,r,0,1200,0,800,L,S,=,0.440559708793582,0.398176801033016,1.345132087622,1.70179638600972,1.64613975688894,1226392.07185899,1226392.53271183,1226392.53271183,1226395.73275182,3.2,1226397.1127725,1226397.1127725,1226399.51281307,2.4,1226401.3552142,1226402.55972406,1.20450985641219,78,Shorter,Middle,77,=,Ring
231,Temporal,2314,2,0,12,800,1.66666666666667,5,1,l,l,-1600,-1200,-1600,-800,=,L,S,0.29458386922121,0.246974212937489,1.89535006884621,1.43613395245636,1.79364431603084,1226404.4052421,1226404.71288716,1226404.71288716,1226407.11291714,2.4,1226409.03294955,1226409.03294955,1226410.63297882,1.6,1226412.22196783,1226412.63176628,0.40979845286347,77,Shorter,Ring,77,S,Ring
231,Temporal,2314,2,0,13,1600,20,20,2,m,m,-800,800,-800,800,=,L,S,0.427834591665876,0.395064644037131,1.61595228746306,1.14367100151669,1.26806788714648,1226414.58863969,1226415.03303199,1226415.03303199,1226415.83304484,0.8,1226417.48306994,1226417.48306994,1226418.28309113,0.8,1226419.58865071,1226419.99174576,0.403095054673031,66,Equals to,Index,66,=,Index
231,Temporal,2314,2,0,14,800,15,5,1,m,m,-800,400,-800,0,S,=,L,0.319951259196283,0.404971358675103,1.083658059374,1.44257097107127,1.80021167297251,1226421.43862885,1226421.77314439,1226421.77314439,1226422.57314601,0.8,1226423.6831597,1226423.6831597,1226425.28319315,1.6,1226426.87204641,1226427.31172282,0.439676409354433,77,Longer,Ring,77,L,Ring
231,Temporal,2314,2,0,15,400,5,5,2,r,r,0,400,0,400,L,S,=,0.356418536929484,0.200776126521586,1.90635304323498,1.40246869600813,1.79246304740585,1226429.28873834,1226429.66324847,1226429.66324847,1226430.46327416,0.8,1226432.393288,1226432.393288,1226433.19330278,0.8,1226434.73871242,1226435.25575599,0.517043577274308,77,Equals to,Ring,77,=,Ring
231,Temporal,2314,2,0,16,400,1.66666666666667,1.25,2,m,m,-800,-400,-800,-400,=,L,S,0.390911376489412,0.480969351650111,1.13122975457884,1.23049321701454,1.13672372686331,1226437.25543679,1226437.66336653,1226437.66336653,1226440.06338593,2.4,1226441.22341717,1226441.22341717,1226444.42346518,3.2,1226445.80546429,1226446.3597623,0.554298011120409,78,Longer,Middle,78,L,Middle
231,Temporal,2314,2,0,17,800,5,5,1,r,r,0,400,0,800,S,=,L,0.493660151291433,0.351898577448513,1.00777328458574,1.26835112492884,1.49617123209826,1226447.67218326,1226448.18351804,1226448.18351804,1226448.98352864,0.8,1226450.02354523,1226450.02354523,1226451.62358221,1.6,1226453.03885589,1226454.39976537,1.36090947571211,77,Longer,Ring,77,L,Ring
231,Temporal,2314,2,0,18,800,15,5,1,m,m,-800,400,-800,0,=,L,S,0.33765636640509,0.324315251412904,1.52025439423516,1.82332173988632,1.15613434089135,1226456.05554877,1226456.40363034,1226456.40363034,1226457.20364961,0.8,1226458.75367555,1226458.75367555,1226460.35369103,1.6,1226462.32223582,1226463.95179242,1.62955659348518,78,Longer,Middle,78,L,Middle
231,Temporal,2314,2,0,19,1600,3.75,5,2,m,m,-800,400,-800,800,L,S,=,0.276156335408442,0.245940215649863,1.51547534223991,1.59168249275326,1.63542636951044,1226465.28895044,1226465.58377295,1226465.58377295,1226468.7838277,3.2,1226470.33383631,1226470.33383631,1226473.53388175,3.2,1226475.27230989,1226476.07974725,0.80743735213764,77,Equals to,Ring,66,L,Index
231,Temporal,2314,2,0,20,800,3.75,3.33333333333333,1,r,r,0,1200,0,800,=,L,S,0.390424334340168,0.398965501745275,1.3749350833987,1.51427308756815,1.45688628044892,1226477.88886162,1226478.29395194,1226478.29395194,1226481.49399866,3.2,1226482.89404446,1226482.89404446,1226485.2940523,2.4,1226486.95529911,1226488.04777257,1.0924734682776,77,Shorter,Ring,77,S,Ring
