Subject,Task,SequenceOrder,ListNo,RunNo,TrialNo,Aud_Probe_Dist,Aud_Standard_Vel,Aud_Probe_Vel,Main_Control,Aud_Std_StartCode,Aud_Probe_StartCode,Aud_Std_StartPt,Aud_Std_EndPt,Aud_Probe_StartPt,Aud_Probe_EndPt,RespIndex,RespMiddle,RespRing,ISI_Cross_Std,ISI_Cross_Probe,ISI_Std_Probe,ISI_Probe_Response,ITI,TrialOnset,StdOnset,StdOnsetByStop,StdOffset,StdDur,ProbeOnset,ProbeOnsetByStop,ProbeOffset,ProbeDur,RespWinStart,RespTime,RT,CorrectKC,CorrectResponse,CorrectFinger,SubjRespKC,SubjResponse,SubjRespFinger
230,Temporal,1243,4,3,1,800,5,5,1,l,l,-1600,-400,-1600,-800,S,=,L,0.267638055434863,0.405228292344906,1.32377053863246,1.48070301407026,1.99593460929473,1223340.75398196,1223341.03387153,1223341.03387153,1223343.43180507,2.4,1223344.79182213,1223344.79182213,1223346.39184595,1.6,1223348.02067267,1223348.59022978,0.569557108683512,66,Shorter,Index,66,S,Index
230,Temporal,1243,4,3,2,800,15,5,1,m,m,-800,400,-800,0,L,S,=,0.289200334543756,0.237804828251983,1.44939727043225,1.94878483467019,1.71095511826281,1223350.75405175,1223351.06191285,1223351.06191285,1223351.86191607,0.8,1223353.33194903,1223353.33194903,1223354.93198279,1.6,1223357.03738853,1223357.814244,0.776855471776798,66,Longer,Index,77,=,Ring
230,Temporal,1243,4,3,3,1200,3.33333333333333,7.5,1,m,m,-800,0,-800,400,L,S,=,0.475620099115363,0.27088278084184,1.74761070844833,1.94384936622178,1.95583891673559,1223359.70409076,1223360.1920517,1223360.1920517,1223362.59207879,2.4,1223364.36210058,1223364.36210058,1223365.96212729,1.6,1223368.05413504,1223368.65424168,0.600106634665281,78,Shorter,Middle,66,L,Index
230,Temporal,1243,4,3,4,800,2.5,3.33333333333333,1,m,m,-800,-400,-800,0,S,=,L,0.331352493946241,0.314141630561642,1.07425588277791,1.00986048716762,1.07975881964043,1223370.78749002,1223371.13220702,1223371.13220702,1223372.73222923,1.6,1223373.84224806,1223373.84224806,1223376.24228029,2.4,1223377.3875335,1223377.95028465,0.562751147896051,77,Longer,Ring,77,L,Ring
230,Temporal,1243,4,3,5,400,3.33333333333333,1.25,2,r,r,0,800,0,400,=,L,S,0.396992729167116,0.35878152636268,1.94196104871911,1.46245392851324,1.59024522787606,1223379.2042177,1223379.61234776,1223379.61234776,1223382.01235817,2.4,1223383.98239754,1223383.98239754,1223387.18244363,3.2,1223388.80426128,1223389.48627576,0.682014483492821,78,Longer,Middle,78,L,Middle
230,Temporal,1243,4,3,6,1200,2.5,5,1,m,m,-800,0,-800,400,S,=,L,0.317579554018348,0.266756276199089,1.46046850646609,1.7478535272034,1.04148643800731,1223391.27095509,1223391.60250555,1223391.60250555,1223394.80255901,3.2,1223396.29257441,1223396.29257441,1223398.69260279,2.4,1223400.58764155,1223401.80633976,1.21869821031578,66,Shorter,Index,78,=,Middle
230,Temporal,1243,4,3,7,1200,5,5,1,m,m,-800,800,-800,400,S,=,L,0.431407868957513,0.233988577277617,1.14402667846184,1.69489132756067,1.91253561552756,1223403.03768846,1223403.4826853,1223403.4826853,1223406.68272818,3.2,1223407.86274186,1223407.86274186,1223410.26277313,2.4,1223412.10440213,1223412.51028652,0.405884393490851,66,Shorter,Index,78,=,Middle
230,Temporal,1243,4,3,8,400,2.5,5,2,r,r,0,400,0,400,S,=,L,0.382472779694218,0.475603550809188,1.71408611354039,1.36661021880281,1.95125950951444,1223414.58774932,1223414.98284666,1223414.98284666,1223416.5828692,1.6,1223418.33289636,1223418.33289636,1223419.13290311,0.8,1223420.65445304,1223421.06226032,0.407807281706482,66,Shorter,Index,66,S,Index
230,Temporal,1243,4,3,9,400,5,5,2,l,l,-1600,-800,-1600,-1200,S,=,L,0.299470282134185,0.399041268073956,1.99508615113254,1.91046597443826,1.15961808902849,1223423.18779497,1223423.50297155,1223423.50297155,1223425.10298703,1.6,1223427.13304848,1223427.13304848,1223427.93304593,0.8,1223430.00448032,1223430.45429435,0.449814030900598,66,Shorter,Index,66,S,Index
230,Temporal,1243,4,3,10,1200,3.33333333333333,7.5,1,l,l,-1600,-800,-1600,-400,L,S,=,0.481308943170418,0.420076216275252,1.40092420309399,1.55939241660906,1.20735694317982,1223431.80451471,1223432.30309897,1223432.30309897,1223434.70313344,2.4,1223436.13315338,1223436.13315338,1223437.73317432,1.6,1223439.43788358,1223439.95826941,0.520385838113725,78,Shorter,Middle,78,S,Middle
230,Temporal,1243,4,3,11,800,5,5,1,l,l,-1600,-400,-1600,-800,S,=,L,0.487785343723147,0.372880125912245,1.15803208974175,1.75633452674662,1.45712180972969,1223441.337912,1223441.84323709,1223441.84323709,1223444.24327477,2.4,1223445.42330193,1223445.42330193,1223447.02332126,1.6,1223448.92128445,1223449.42228985,0.501005394151434,66,Shorter,Index,66,S,Index
230,Temporal,1243,4,3,12,1600,15,20,2,r,r,0,1200,0,1600,L,S,=,0.234365002068497,0.318969680217293,1.49590821941957,1.74707089939029,1.01536463750897,1223451.05464135,1223451.30337614,1223451.30337614,1223452.10338771,0.8,1223453.63341163,1223453.63341163,1223454.43342512,0.8,1223456.33799133,1223456.83827369,0.50028235395439,77,Equals to,Ring,66,L,Index
230,Temporal,1243,4,3,13,1200,10,5,1,m,m,-800,800,-800,400,L,S,=,0.473920450818366,0.382943993332899,1.66470680434778,1.89308969516007,1.28934684975106,1223458.03801802,1223458.5234769,1223458.5234769,1223460.12351933,1.6,1223461.81354332,1223461.81354332,1223464.21355534,2.4,1223466.25468002,1223466.75029402,0.495613992912695,66,Longer,Index,66,L,Index
230,Temporal,1243,4,3,14,800,15,5,1,r,r,0,1200,0,800,L,S,=,0.339517920898348,0.43513230584016,1.3508973701234,1.202882489099,1.45170566604196,1223468.20474285,1223468.56363716,1223468.56363716,1223469.36363076,0.8,1223470.7336591,1223470.7336591,1223472.33368484,1.6,1223473.68805423,1223474.1663109,0.478256671223789,66,Longer,Index,66,L,Index
230,Temporal,1243,4,3,15,800,5,5,1,l,l,-1600,-1200,-1600,-800,=,L,S,0.467159914105406,0.420935213915326,1.37320697425647,1.26849597335119,1.52480640618033,1223475.78809954,1223476.27373883,1223476.27373883,1223477.07374431,0.8,1223478.47377085,1223478.47377085,1223480.07379211,1.6,1223481.4881246,1223482.06232769,0.574203094001859,78,Longer,Middle,78,L,Middle
230,Temporal,1243,4,3,16,400,5,5,2,m,m,-800,0,-800,-400,=,L,S,0.453053795884769,0.34017388157471,1.83671905182189,1.47317616557155,1.1643120229199,1223483.75480788,1223484.22384897,1223484.22384897,1223485.82387535,1.6,1223487.69390625,1223487.69390625,1223488.49391301,0.8,1223490.10484264,1223490.71829849,0.613455854123458,77,Shorter,Ring,77,S,Ring
230,Temporal,1243,4,3,17,1200,20,7.5,1,l,l,-1600,0,-1600,-400,S,=,L,0.331951536523637,0.46283431486013,1.40105905518036,1.33631410649403,1.48144773073982,1223492.03819923,1223492.38397608,1223492.38397608,1223493.18397899,0.8,1223494.62400314,1223494.62400314,1223496.22403049,1.6,1223497.70488319,1223499.57436772,1.86948452726938,77,Longer,Ring,78,=,Middle
230,Temporal,1243,4,3,18,1600,5,5,2,m,m,-800,400,-800,800,S,=,L,0.341942627212477,0.253872999460383,1.68332968719535,1.68749862521427,1.96569958784046,1223501.2382592,1223501.59410919,1223501.59410919,1223503.99413372,2.4,1223505.70416775,1223505.70416775,1223508.90421127,3.2,1223510.73829794,1223511.35038461,0.612086670473218,77,Longer,Ring,77,L,Ring
230,Temporal,1243,4,3,19,1200,10,7.5,1,l,l,-1600,-800,-1600,-400,S,=,L,0.299471759702179,0.366210606050192,1.83737126397124,1.86038878146521,1.45576945735886,1223513.48832211,1223513.80428369,1223513.80428369,1223514.6042975,0.8,1223516.47432488,1223516.47432488,1223518.074341,1.6,1223520.08834231,1223520.70231132,0.613969007506967,77,Longer,Ring,77,L,Ring
230,Temporal,1243,4,3,20,1600,5,5,2,l,l,-1600,-400,-1600,0,L,S,=,0.217006887681524,0.369928389362123,1.03493764379222,1.99357842783809,1.67476904263174,1223522.33837923,1223522.57441066,1223522.57441066,1223524.97453303,2.4,1223526.03445347,1223526.03445347,1223529.23450116,3.2,1223531.38842368,1223532.30234641,0.913922733394429,66,Longer,Index,77,=,Ring
230,Temporal,1243,4,3,21,400,2.5,5,2,r,r,0,400,0,400,=,L,S,0.396411576469732,0.275450843660303,1.18972823263478,1.01323331855828,1.04699127987578,1223534.1551137,1223534.56459732,1223534.56459732,1223536.16460863,1.6,1223537.39462799,1223537.39462799,1223538.19463058,0.8,1223539.3551213,1223540.05433747,0.699216166976839,77,Shorter,Ring,77,S,Ring
230,Temporal,1243,4,3,22,1200,5,5,1,l,l,-1600,-800,-1600,-400,L,S,=,0.287698212609489,0.425482775863258,1.77510744603562,1.9382042018908,1.89511773260174,1223541.28849865,1223541.59469722,1223541.59469722,1223543.19470565,1.6,1223544.99473784,1223544.99473784,1223547.39476301,2.4,1223549.47186469,1223550.11032322,0.638458532746881,66,Longer,Index,66,L,Index
230,Temporal,1243,4,3,23,1600,20,20,2,m,m,-800,800,-800,800,S,=,L,0.412432209409778,0.229990514551361,1.46818619615958,1.00087658343644,1.52226775492399,1223552.17189587,1223552.59484094,1223552.59484094,1223553.39485732,0.8,1223554.88487368,1223554.88487368,1223555.68489103,0.8,1223556.83814793,1223557.39033956,0.55219162395224,78,Equals to,Middle,78,=,Middle
230,Temporal,1243,4,3,24,800,1.25,3.33333333333333,1,m,m,-800,-400,-800,0,=,L,S,0.2453495175994,0.249233653665599,1.40020620994885,1.67758988142795,1.79721767477301,1223559.10525729,1223559.36494064,1223559.36494064,1223562.5649986,3.2,1223564.00501153,1223564.00501153,1223566.40504279,2.4,1223568.23861489,1223568.7423949,0.503780012018979,77,Shorter,Ring,77,S,Ring
230,Temporal,1243,4,3,25,800,1.66666666666667,5,1,m,m,-800,-400,-800,0,L,S,=,0.261154400963163,0.236198114406508,1.45219421092239,1.42483360715617,1.33827498949892,1223589.70543529,1223589.98539287,1223589.98539287,1223592.38542734,2.4,1223593.87545205,1223593.87545205,1223595.47546496,1.6,1223597.03876124,1223597.56635151,0.527590268990025,78,Shorter,Middle,78,S,Middle
230,Temporal,1243,4,3,26,800,2.5,3.33333333333333,1,l,l,-1600,-1200,-1600,-800,=,L,S,0.468026048997045,0.469204527924204,1.54665798771241,1.29526809259828,1.64680280388715,1223599.0721512,1223599.55553979,1223599.55553979,1223601.15555046,1.6,1223602.73557813,1223602.73557813,1223605.13560555,2.4,1223606.58887012,1223607.23836787,0.649497752077878,78,Longer,Middle,78,L,Middle
230,Temporal,1243,4,3,27,1600,20,20,2,r,r,0,1600,0,1600,=,L,S,0.383991950027993,0.392590128907022,1.67764859567363,1.20326172551888,1.42544851792969,1223609.05555312,1223609.45568338,1223609.45568338,1223610.25567987,0.8,1223611.96570909,1223611.96570909,1223612.76572323,0.8,1223614.1222159,1223614.75837246,0.636156551307067,66,Equals to,Index,66,=,Index
230,Temporal,1243,4,3,28,1600,7.5,20,2,m,m,-800,400,-800,800,=,L,S,0.315111405786429,0.480311694680353,1.64427835377168,1.17167487178557,1.32800083344663,1223616.35559869,1223616.68578001,1223616.68578001,1223618.28579582,1.6,1223619.9658233,1223619.9658233,1223620.76583775,0.8,1223622.08895716,1223623.03835511,0.949397950666025,77,Shorter,Ring,66,=,Index
230,Temporal,1243,4,3,29,1600,5,5,2,r,r,0,1600,0,1600,=,L,S,0.317939997242955,0.304731495079137,1.59858179618126,1.89160112781903,1.33815901887624,1223624.55563539,1223624.8858948,1223624.8858948,1223628.08594153,3.2,1223629.71596878,1223629.71596878,1223632.91601006,3.2,1223634.95567733,1223635.44637664,0.490699303802103,66,Equals to,Index,66,=,Index
230,Temporal,1243,4,3,30,1600,3.75,5,2,l,l,-1600,-400,-1600,0,S,=,L,0.485599664542476,0.490711552775739,1.86364321041381,1.71132535548479,1.63239884353411,1223636.98904812,1223637.48608292,1223637.48608292,1223640.68613061,3.2,1223642.58615747,1223642.58615747,1223645.78620003,3.2,1223647.65576613,1223648.18241484,0.526648714439943,78,Equals to,Middle,78,=,Middle
230,Temporal,1243,4,3,31,1200,3.33333333333333,7.5,1,r,r,0,800,0,1200,S,=,L,0.406539001803019,0.26965247148256,1.62417442534234,1.7405238917429,1.16941824081366,1223649.98912489,1223650.40626124,1223650.40626124,1223652.80630053,2.4,1223654.46632471,1223654.46632471,1223656.06634725,1.6,1223657.95580197,1223658.70242295,0.746620988938957,66,Shorter,Index,66,S,Index
230,Temporal,1243,4,3,32,1200,5,5,1,m,m,-800,0,-800,400,L,S,=,0.360430763696748,0.492040056533489,1.24173531793632,1.59270583532945,1.40628222755251,1223660.03916228,1223660.41640982,1223660.41640982,1223662.016433,1.6,1223663.29645483,1223663.29645483,1223665.69648353,2.4,1223667.43921024,1223668.16637698,0.727166746044531,66,Longer,Index,66,L,Index
230,Temporal,1243,4,3,33,1200,6.66666666666667,7.5,1,r,r,0,1600,0,1200,L,S,=,0.305721440681483,0.46177252102362,1.35320463380592,1.38100845589653,1.62114662878467,1223669.73923224,1223670.05654775,1223670.05654775,1223672.45658575,2.4,1223673.83660483,1223673.83660483,1223675.4366309,1.6,1223676.9725826,1223677.82240777,0.8498251773417,78,Shorter,Middle,77,=,Ring
230,Temporal,1243,4,3,34,800,3.75,3.33333333333333,1,l,l,-1600,-400,-1600,-800,=,L,S,0.341739364659887,0.470949355811137,1.22585159036545,1.67900816025639,1.36390581288672,1223679.63928299,1223679.9966989,1223679.9966989,1223683.196736,3.2,1223684.44675674,1223684.44675674,1223686.84678865,2.4,1223688.67266342,1223689.43843101,0.765767586650327,77,Shorter,Ring,77,S,Ring
230,Temporal,1243,4,3,35,400,10,5,2,r,r,0,800,0,400,S,=,L,0.24805402267706,0.374685674144964,1.68705862314512,1.94090280559183,1.78367500901574,1223690.97265996,1223691.23685974,1223691.23685974,1223692.03686842,0.8,1223693.75689704,1223693.75689704,1223694.55690797,0.8,1223696.6393709,1223697.3824058,0.743034902494401,78,Equals to,Middle,78,=,Middle
230,Temporal,1243,4,3,36,1200,5,5,1,m,m,-800,0,-800,400,=,L,S,0.235707768726201,0.495054541919148,1.26142875799561,1.93056017493737,1.04498547132506,1223699.33938783,1223699.58698033,1223699.58698033,1223701.1870003,1.6,1223702.48702447,1223702.48702447,1223704.88705734,2.4,1223706.97277861,1223707.65442133,0.681642721872777,78,Longer,Middle,78,L,Middle
230,Temporal,1243,4,3,37,1600,3.75,5,2,m,m,-800,400,-800,800,=,L,S,0.418482745610078,0.433267609842894,1.83287717435696,1.25575625187485,1.18695326154343,1223708.88946357,1223709.32712416,1223709.32712416,1223712.5271648,3.2,1223714.38719629,1223714.38719629,1223717.58724847,3.2,1223718.98949753,1223719.7904623,0.800964762689546,66,Equals to,Index,66,=,Index
230,Temporal,1243,4,3,38,1200,5,5,1,r,r,0,1600,0,1200,=,L,S,0.476835602181682,0.350083741879323,1.76757335624341,1.30683571059884,1.78346578323659,1223721.17286232,1223721.66730181,1223721.66730181,1223724.86734854,3.2,1223726.66737624,1223726.66737624,1223729.06740782,2.4,1223730.52291201,1223731.23843845,0.715526439482346,77,Shorter,Ring,77,S,Ring
230,Temporal,1243,4,3,39,800,5,5,1,r,r,0,1200,0,800,=,L,S,0.454496942298834,0.224228411138797,1.65897908186286,1.86377130313025,1.5351466191832,1223733.20627844,1223733.67747477,1223733.67747477,1223736.0775025,2.4,1223737.7675358,1223737.7675358,1223739.36755706,1.6,1223741.38960139,1223742.16644114,0.776839752215892,77,Shorter,Ring,77,S,Ring
230,Temporal,1243,4,3,40,800,7.5,3.33333333333333,1,l,l,-1600,-400,-1600,-800,L,S,=,0.478370907413993,0.395565070833664,1.68292586199854,1.85209343577154,1.08804474085755,1223743.87301032,1223744.36763185,1223744.36763185,1223745.96765343,1.6,1223747.6876859,1223747.6876859,1223750.08771043,2.4,1223752.08966741,1223752.87844421,0.788776800734922,66,Longer,Index,66,L,Index
230,Temporal,1243,4,3,41,400,10,5,2,l,l,-1600,-800,-1600,-1200,=,L,S,0.388070495860529,0.241573275876768,1.23428216232556,1.75691022627423,1.05182469069273,1223754.13971818,1223754.54777766,1223754.54777766,1223755.34778153,0.8,1223756.60781033,1223756.60781033,1223757.40782126,0.8,1223759.30638714,1223759.92642852,0.62004137551412,66,Equals to,Index,66,=,Index
230,Temporal,1243,4,3,42,1200,10,7.5,1,r,r,0,800,0,1200,S,=,L,0.413333432104939,0.415977853705021,1.73123808030516,1.5883340123804,1.32006224374457,1223761.15643508,1223761.58789044,1223761.58789044,1223762.38789527,0.8,1223764.15791963,1223764.15791963,1223765.7579534,1.6,1223767.48936733,1223768.13443407,0.645066736498848,77,Longer,Ring,77,L,Ring
230,Temporal,1243,4,3,43,1600,10,20,2,l,l,-1600,0,-1600,0,=,L,S,0.31267363754499,0.418608446781818,1.7915753259466,1.95753644733761,1.41896431827944,1223769.63981758,1223769.96800764,1223769.96800764,1223771.56802986,1.6,1223773.39806058,1223773.39806058,1223774.1980622,0.8,1223776.28983518,1223776.99048501,0.700649831676856,77,Shorter,Ring,77,S,Ring
230,Temporal,1243,4,3,44,1200,3.33333333333333,7.5,1,m,m,-800,0,-800,400,L,S,=,0.25620135852804,0.396356614859778,1.50854980688189,1.85908303267068,1.79088101554742,1223778.58985434,1223778.85813162,1223778.85813162,1223781.25816866,2.4,1223782.79819037,1223782.79819037,1223784.39820906,1.6,1223786.38990872,1223787.23045561,0.840546890860423,78,Shorter,Middle,78,S,Middle
230,Temporal,1243,4,3,45,1200,2.5,5,1,l,l,-1600,-800,-1600,-400,L,S,=,0.444153540453222,0.383103695799682,1.90692188243842,1.06919472897906,1.69200802471986,1223789.20659378,1223789.66829245,1223789.66829245,1223792.86833404,3.2,1223794.80837296,1223794.80837296,1223797.20839877,2.4,1223798.42329515,1223799.0144916,0.5911964494735,78,Shorter,Middle,78,S,Middle
230,Temporal,1243,4,3,46,1200,20,7.5,1,l,l,-1600,0,-1600,-400,L,S,=,0.225032563056928,0.364357564908419,1.65036046537008,1.71274941647373,1.51261050067337,1223800.87333258,1223801.11845647,1223801.11845647,1223801.91847125,0.8,1223803.60849204,1223803.60849204,1223805.20852163,1.6,1223807.07333313,1223808.45455837,1.38122524600476,66,Longer,Index,66,L,Index
230,Temporal,1243,4,3,47,800,2.5,3.33333333333333,1,r,r,0,400,0,800,L,S,=,0.378175030285836,0.275436488300106,1.59585521515677,1.33906497291667,1.18698454981466,1223810.15672077,1223810.54859635,1223810.54859635,1223812.14861279,1.6,1223813.76864161,1223813.76864161,1223816.16868378,2.4,1223817.65674586,1223818.31049126,0.653745397226885,66,Longer,Index,66,L,Index
230,Temporal,1243,4,3,48,1200,6.66666666666667,7.5,1,r,r,0,1600,0,1200,=,L,S,0.278262472986369,0.480695949489704,1.26751712719517,1.73058490815261,1.35971705818337,1223819.67345511,1223819.96873297,1223819.96873297,1223822.36877162,2.4,1223823.66879771,1223823.66879771,1223825.26881031,1.6,1223827.15676896,1223828.11847352,0.961704563116655,77,Shorter,Ring,77,S,Ring
230,Temporal,1243,4,3,49,1200,6.66666666666667,7.5,1,r,r,0,1600,0,1200,=,L,S,0.218865142922677,0.34065363385216,1.48079855596244,1.7356602136787,1.83667479256329,1223831.17350282,1223831.40890048,1223831.40890048,1223833.80893111,2.4,1223835.31896167,1223835.31896167,1223836.91897715,1.6,1223838.80685657,1223839.46251202,0.655655453447253,77,Shorter,Ring,77,S,Ring
230,Temporal,1243,4,3,50,800,5,5,1,m,m,-800,400,-800,0,L,S,=,0.203387585341784,0.342408019642855,1.26930446266791,1.29871724582783,1.94762214836343,1223841.47355856,1223841.68904514,1223841.68904514,1223844.08907833,2.4,1223845.38911373,1223845.38911373,1223846.98912119,1.6,1223848.44026082,1223848.95047681,0.510215992806479,78,Shorter,Middle,78,S,Middle
230,Temporal,1243,4,3,51,1200,10,5,1,r,r,0,1600,0,1200,=,L,S,0.455159173836595,0.243777809089158,1.01238960693061,1.83812576503255,1.85395710681605,1223851.07361542,1223851.5391869,1223851.5391869,1223853.1392104,1.6,1223854.18923826,1223854.18923826,1223856.58926087,2.4,1223858.59030833,1223859.19047339,0.600165067240596,78,Longer,Middle,78,L,Middle
230,Temporal,1243,4,3,52,1600,5,5,2,l,l,-1600,0,-1600,0,=,L,S,0.476050318453764,0.297984185027019,1.90395297668444,1.33408540070633,1.25548675605979,1223861.24034148,1223861.72933308,1223861.72933308,1223864.92938333,3.2,1223866.85942381,1223866.85942381,1223870.0594577,3.2,1223871.54039412,1223872.21447742,0.674083291785792,66,Equals to,Index,66,=,Index
230,Temporal,1243,4,3,53,1200,10,5,1,r,r,0,1600,0,1200,S,=,L,0.405824615899603,0.213854490643988,1.82746528502271,1.15738053415202,1.53963022342991,1223873.64035777,1223874.05951164,1223874.05951164,1223875.65953707,1.6,1223877.51957209,1223877.51957209,1223879.91960176,2.4,1223881.22376968,1223882.23853052,1.01476084371097,77,Longer,Ring,77,L,Ring
230,Temporal,1243,4,3,54,800,1.66666666666667,5,1,l,l,-1600,-1200,-1600,-800,L,S,=,0.417357788190858,0.376206335038023,1.73090421905537,1.37988214541804,1.5277908394489,1223883.95712946,1223884.38966807,1223884.38966807,1223886.78969805,2.4,1223888.54972878,1223888.54972878,1223890.14974715,1.6,1223891.67383852,1223892.40649612,0.732657595770434,78,Shorter,Middle,78,S,Middle
230,Temporal,1243,4,3,55,800,1.66666666666667,5,1,m,m,-800,-400,-800,0,=,L,S,0.488611335202803,0.225047033316078,1.07714809359274,1.54325382053069,1.16277932940865,1223894.12386107,1223894.62981961,1223894.62981961,1223897.02985504,2.4,1223898.12986741,1223898.12986741,1223899.72988802,1.6,1223901.42387059,1223902.03049898,0.606628395849839,77,Shorter,Ring,66,=,Index
230,Temporal,1243,4,3,56,1200,20,7.5,1,l,l,-1600,0,-1600,-400,L,S,=,0.298882967238096,0.245042215562043,1.72698641418583,1.02782392659097,1.01935306488738,1223903.35726113,1223903.66995003,1223903.66995003,1223904.46995968,0.8,1223906.22998366,1223906.22998366,1223907.83000941,1.6,1223909.00728275,1223909.71850092,0.711218162672594,66,Longer,Index,77,=,Ring
230,Temporal,1243,4,3,57,1600,6.66666666666667,5,2,l,l,-1600,0,-1600,0,=,L,S,0.483120413092834,0.244476617093165,1.8017029081963,1.75166582971098,1.12641479859671,1223910.9239423,1223911.42007498,1223911.42007498,1223913.82009149,2.4,1223915.66011905,1223915.66011905,1223918.86017027,3.2,1223920.75735327,1223921.36650716,0.609153897035867,78,Longer,Middle,78,L,Middle
230,Temporal,1243,4,3,58,800,1.25,3.33333333333333,1,m,m,-800,-400,-800,0,S,=,L,0.380909936829026,0.262942118759237,1.22606551216003,1.28905572996023,1.93794364662913,1223922.67403745,1223923.07023446,1223923.07023446,1223926.27026867,3.2,1223927.53029106,1223927.53029106,1223929.93032489,2.4,1223931.35739253,1223932.21449346,0.857100923545659,66,Shorter,Index,78,=,Middle
230,Temporal,1243,4,3,59,1200,5,5,1,l,l,-1600,-800,-1600,-400,=,L,S,0.489141345146808,0.310177040047266,1.26104970956591,1.32506695527234,1.79716943287595,1223934.32410169,1223934.83042746,1223934.83042746,1223936.43041888,1.6,1223937.7204459,1223937.7204459,1223940.1205025,2.4,1223941.59077829,1223942.20655874,0.615780449006706,78,Longer,Middle,78,L,Middle
230,Temporal,1243,4,3,60,800,7.5,3.33333333333333,1,l,l,-1600,-400,-1600,-800,S,=,L,0.377342792113015,0.401832407232188,1.57548621724539,1.93016080274818,1.83269692713104,1223944.19082402,1223944.58054664,1223944.58054664,1223946.18056116,1.6,1223947.78059117,1223947.78059117,1223950.18061923,2.4,1223952.25753507,1223952.97456167,0.717026606667787,77,Longer,Ring,77,L,Ring
230,Temporal,1243,4,3,61,800,7.5,3.33333333333333,1,l,l,-1600,-400,-1600,-800,L,S,=,0.342909436528634,0.392689032712076,1.07348028497743,1.43412376344794,1.0060739712681,1223954.99090245,1223955.35070152,1223955.35070152,1223956.95071989,1.6,1223958.06073935,1223958.06073935,1223960.46076901,2.4,1223962.04090154,1223962.72654118,0.685639642877504,66,Longer,Index,66,L,Index
230,Temporal,1243,4,3,62,1200,20,7.5,1,m,m,-800,800,-800,400,=,L,S,0.437365163272631,0.330441841339794,1.56252009641066,1.202580344761,1.2678907267311,1223963.90761616,1223964.36082668,1223964.36082668,1223965.1608376,0.8,1223966.75086564,1223966.75086564,1223968.35089235,1.6,1223969.70763695,1223970.29454579,0.586908833822235,78,Longer,Middle,78,L,Middle
230,Temporal,1243,4,3,63,400,1.66666666666667,1.25,2,r,r,0,400,0,400,L,S,=,0.259164559485381,0.463483025701802,1.41911139343636,1.42566974362848,1.98600840221782,1223971.74095963,1223972.01093899,1223972.01093899,1223974.41099656,2.4,1223975.86099413,1223975.86099413,1223979.06103894,3.2,1223980.62434062,1223981.2545363,0.630195678211749,66,Longer,Index,66,L,Index
230,Temporal,1243,4,3,64,400,5,5,2,l,l,-1600,-1200,-1600,-1200,L,S,=,0.471479783784005,0.290278561656701,1.92111621350522,1.25251768022606,1.29189263549541,1223983.42439133,1223983.91111819,1223983.91111819,1223984.71112206,0.8,1223986.66115492,1223986.66115492,1223987.46115654,0.8,1223988.85775082,1223989.4866203,0.62886948348023,77,Equals to,Ring,77,=,Ring
230,Temporal,1243,4,3,65,400,1.25,1.25,2,r,r,0,400,0,400,=,L,S,0.366754984115297,0.471752000391941,1.91562233403108,1.92590883944969,1.4608314437549,1223990.95776396,1223991.34122598,1223991.34122598,1223994.5412663,3.2,1223996.49131167,1223996.49131167,1223999.69134396,3.2,1224001.75781041,1224002.41455146,0.656741047743708,66,Equals to,Index,66,=,Index
230,Temporal,1243,4,3,66,1200,2.5,5,1,l,l,-1600,-800,-1600,-400,=,L,S,0.458609398498424,0.420085936675443,1.79011049876486,1.1234585289888,1.93322560942377,1224004.05782106,1224004.53148188,1224004.53148188,1224007.73146412,3.2,1224009.55148453,1224009.55148453,1224011.95153087,2.4,1224013.22452815,1224013.90254159,0.678013439057395,77,Shorter,Ring,66,=,Index
230,Temporal,1243,4,3,67,1200,6.66666666666667,7.5,1,m,m,-800,800,-800,400,L,S,=,0.488513318884452,0.379152948100062,1.83067738140865,1.56307376409764,1.19394401069748,1224016.00792032,1224016.51159118,1224016.51159118,1224018.91161956,2.4,1224020.77164881,1224020.77164881,1224022.37167071,1.6,1224024.09126372,1224024.80669007,0.715426347916946,78,Shorter,Middle,78,S,Middle
230,Temporal,1243,4,3,68,800,5,5,1,l,l,-1600,-1200,-1600,-800,S,=,L,0.362922021641327,0.254216335142906,1.86298159981113,1.92247043391247,1.10736820964064,1224026.19130793,1224026.57174255,1224026.57174255,1224027.37174289,0.8,1224029.27178804,1224029.27178804,1224030.87180448,1.6,1224032.94133449,1224033.59858122,0.657246727962047,77,Longer,Ring,77,L,Ring
230,Temporal,1243,4,3,69,800,3.75,3.33333333333333,1,m,m,-800,400,-800,0,S,=,L,0.414356236935099,0.221770744248927,1.60212373491336,1.45127307457076,1.52013355917491,1224034.94135039,1224035.37186869,1224035.37186869,1224038.57190451,3.2,1224040.21194785,1224040.21194785,1224042.61196243,2.4,1224044.20804469,1224044.90259292,0.694548222701997,66,Shorter,Index,66,S,Index
230,Temporal,1243,4,3,70,800,3.75,3.33333333333333,1,m,m,-800,400,-800,0,S,=,L,0.4888453450119,0.300385755824439,1.2856178920634,1.09586602847733,1.41206786627248,1224046.60808296,1224047.11205615,1224047.11205615,1224050.31206919,3.2,1224051.62210111,1224051.62210111,1224054.02213013,2.4,1224055.27477314,1224056.19058696,0.915813813917339,66,Shorter,Index,66,S,Index
230,Temporal,1243,4,3,71,800,1.25,3.33333333333333,1,m,m,-800,-400,-800,0,=,L,S,0.497068413298749,0.325423145174625,1.30202899980232,1.10612977108474,1.48318026138991,1224057.79148798,1224058.30220714,1224058.30220714,1224061.50224488,3.2,1224062.84226474,1224062.84226474,1224065.24229376,2.4,1224066.49151624,1224067.19059883,0.699082584353164,77,Shorter,Ring,66,=,Index
230,Temporal,1243,4,3,72,1600,15,20,2,m,m,-800,400,-800,800,=,L,S,0.372185786119397,0.403763022983867,1.70066324415559,1.29112548198293,1.35296642447292,1224068.84150513,1224069.23235215,1224069.23235215,1224070.03236981,0.8,1224071.76240201,1224071.76240201,1224072.56240395,0.8,1224073.9915844,1224074.54260092,0.551016525831074,66,Equals to,Index,66,=,Index
230,Temporal,1243,4,3,73,400,1.66666666666667,1.25,2,l,l,-1600,-1200,-1600,-1200,L,S,=,0.380903384817529,0.42475253644306,1.63060867160675,1.76964904515608,1.99173613259429,1224099.17504849,1224099.57279959,1224099.57279959,1224101.97282861,2.4,1224103.63285087,1224103.63285087,1224106.83289792,3.2,1224108.74133241,1224109.27864234,0.537309932755306,66,Longer,Index,66,L,Index
230,Temporal,1243,4,3,74,400,2.5,1.25,2,r,r,0,800,0,400,S,=,L,0.388837168981693,0.375385179263971,1.080218896812,1.10899213649587,1.99261675138778,1224111.45846748,1224111.86298182,1224111.86298182,1224115.06302085,3.2,1224116.17304321,1224116.17304321,1224119.37308191,3.2,1224120.62513177,1224121.32659007,0.7014583023265,78,Equals to,Middle,78,=,Middle
230,Temporal,1243,4,3,75,1600,10,20,2,r,r,0,1600,0,1600,L,S,=,0.229766166551201,0.34027304034049,1.11290534560146,1.82114497418142,1.70319451781143,1224123.49187485,1224123.73315704,1224123.73315704,1224125.33316482,1.6,1224126.47318956,1224126.47318956,1224127.27320145,0.8,1224129.24188084,1224129.75060263,0.50872179120779,78,Shorter,Middle,78,S,Middle
230,Temporal,1243,4,3,76,800,15,5,1,m,m,-800,400,-800,0,L,S,=,0.351597944971493,0.496608608102174,1.64897811068608,1.44689939547471,1.16579409539171,1224131.62524697,1224131.993266,1224131.993266,1224132.79328334,0.8,1224134.47331691,1224134.47331691,1224136.07332245,1.6,1224137.67528304,1224138.52660509,0.851322041591629,66,Longer,Index,77,=,Ring
230,Temporal,1243,4,3,77,1200,5,5,1,m,m,-800,800,-800,400,=,L,S,0.30549362815439,0.200531604152149,1.74649572576652,1.09916621672065,1.92696331879077,1224139.8753107,1224140.19339457,1224140.19339457,1224143.39343809,3.2,1224145.17346987,1224145.17346987,1224147.57349536,2.4,1224148.82533408,1224149.55863494,0.733300850493833,77,Shorter,Ring,77,S,Ring
230,Temporal,1243,4,3,78,1200,10,7.5,1,r,r,0,800,0,1200,S,=,L,0.428450741998569,0.280051305372414,1.35797751933528,1.08745812953518,1.44269361777022,1224151.65870091,1224152.10358409,1224152.10358409,1224152.90357961,0.8,1224154.29359328,1224154.29359328,1224155.89361967,1.6,1224157.1253775,1224157.71860903,0.593231523642316,77,Longer,Ring,77,L,Ring
230,Temporal,1243,4,3,79,1600,6.66666666666667,5,2,m,m,-800,800,-800,800,=,L,S,0.302616625009656,0.452800223949868,1.32343221955168,1.84595866256069,1.07629694477435,1224159.34188303,1224159.66367482,1224159.66367482,1224162.06370833,2.4,1224163.41372759,1224163.41372759,1224166.61377657,3.2,1224168.60878607,1224169.30262455,0.693838479695842,78,Longer,Middle,78,L,Middle
230,Temporal,1243,4,3,80,1600,7.5,20,2,r,r,0,1200,0,1600,S,=,L,0.24573910525066,0.305255634864277,1.33188721272651,1.00297512342207,1.43411264334818,1224170.54214877,1224170.80383553,1224170.80383553,1224172.40387988,1.6,1224173.77387389,1224173.77387389,1224174.57388706,0.8,1224175.72548189,1224176.42262092,0.69713902217336,66,Shorter,Index,66,S,Index
230,Temporal,1243,4,3,81,800,2.5,3.33333333333333,1,r,r,0,400,0,800,L,S,=,0.414274964899926,0.298683646584633,1.92005762674999,1.62184852039953,1.36966162071629,1224178.04219391,1224178.4739444,1224178.4739444,1224180.07397721,1.6,1224182.02399916,1224182.02399916,1224184.42403011,2.4,1224186.19220861,1224186.79866938,0.606460763141513,66,Longer,Index,66,L,Index
230,Temporal,1243,4,3,82,800,5,5,1,l,l,-1600,-1200,-1600,-800,S,=,L,0.290405971952293,0.345942276638812,1.4048764071037,1.4327094334074,1.06962989940717,1224188.34225497,1224188.64408696,1224188.64408696,1224189.44410783,0.8,1224190.87412136,1224190.87412136,1224192.47414679,1.6,1224194.05893506,1224194.65463691,0.595701844198629,77,Longer,Ring,77,L,Ring
230,Temporal,1243,4,3,83,800,3.75,3.33333333333333,1,r,r,0,1200,0,800,=,L,S,0.218519862640552,0.401768731520274,1.47071391203767,1.44316607604983,1.21157328996731,1224195.90896047,1224196.14420085,1224196.14420085,1224199.34424597,3.2,1224200.84427553,1224200.84427553,1224203.24429589,2.4,1224204.84232207,1224205.47068189,0.628359823487699,77,Shorter,Ring,77,S,Ring
230,Temporal,1243,4,3,84,800,1.66666666666667,5,1,r,r,0,400,0,800,L,S,=,0.369471688317303,0.245222982313142,1.34557027269725,1.29214114636658,1.5593178908246,1224206.85902582,1224207.24436234,1224207.24436234,1224209.64439842,2.4,1224211.02442968,1224211.02442968,1224212.62444196,1.6,1224214.05905546,1224214.86267358,0.803618118865415,78,Shorter,Middle,78,S,Middle
230,Temporal,1243,4,3,85,400,5,5,2,r,r,0,400,0,400,S,=,L,0.404663764726665,0.343999379713118,1.0554226683891,1.9125387412869,1.36724626197929,1224216.59241884,1224217.01450502,1224217.01450502,1224217.81451595,0.8,1224218.89453207,1224218.89453207,1224219.69454461,0.8,1224221.75909091,1224222.35075161,0.591660698177293,78,Equals to,Middle,78,=,Middle
230,Temporal,1243,4,3,86,400,3.33333333333333,1.25,2,l,l,-1600,-800,-1600,-1200,L,S,=,0.382978387642824,0.357062911882406,1.54130772388259,1.69665792804778,1.50418864794403,1224223.90912623,1224224.30461091,1224224.30461091,1224226.70464538,2.4,1224228.28467819,1224228.28467819,1224231.4847185,3.2,1224233.3258503,1224233.95864956,0.632799261948094,66,Longer,Index,77,=,Ring
230,Temporal,1243,4,3,87,400,2.5,1.25,2,r,r,0,800,0,400,L,S,=,0.47792830041383,0.274156671845583,1.01308910544754,1.47641861251426,1.2219052499035,1224235.65920237,1224236.15478122,1224236.15478122,1224239.35482635,3.2,1224240.40485677,1224240.40485677,1224243.60490061,3.2,1224245.24255874,1224245.83868592,0.596127178752795,77,Equals to,Ring,66,L,Index
230,Temporal,1243,4,3,88,800,5,5,1,m,m,-800,-400,-800,0,S,=,L,0.415490288272504,0.313125947263507,1.14664476005269,1.96824270876758,1.28424096974628,1224247.22592332,1224247.65495285,1224247.65495285,1224248.45495993,0.8,1224249.63498099,1224249.63498099,1224251.23500032,1.6,1224253.34263403,1224254.06273415,0.720100115984678,77,Longer,Ring,77,L,Ring
230,Temporal,1243,4,3,89,800,1.25,3.33333333333333,1,m,m,-800,-400,-800,0,S,=,L,0.480947235593852,0.230425561229922,1.41492321882584,1.13129047447495,1.95388311068497,1224255.52598905,1224256.02507289,1224256.02507289,1224259.22512154,3.2,1224260.6751451,1224260.6751451,1224263.07518022,2.4,1224264.35934731,1224264.97467363,0.615326322847977,66,Shorter,Index,66,S,Index
230,Temporal,1243,4,3,90,800,15,5,1,l,l,-1600,-400,-1600,-800,S,=,L,0.378075951261057,0.400883371624471,1.74636945358033,1.92528470372437,1.74841478513081,1224267.10938298,1224267.50524411,1224267.50524411,1224268.3052576,0.8,1224270.0852804,1224270.0852804,1224271.68529812,1.6,1224273.7427356,1224274.46269199,0.71995639661327,77,Longer,Ring,77,L,Ring
230,Temporal,1243,4,3,91,1200,10,5,1,r,r,0,1600,0,1200,L,S,=,0.452794893887088,0.413041606705833,1.60174833550386,1.01044085566322,1.02799799311675,1224276.39276609,1224276.86538014,1224276.86538014,1224278.4654091,1.6,1224280.09543154,1224280.09543154,1224282.49546024,2.4,1224283.65945531,1224284.30272367,0.643268366111442,66,Longer,Index,66,L,Index
230,Temporal,1243,4,3,92,1200,2.5,5,1,l,l,-1600,-800,-1600,-400,L,S,=,0.216878229456416,0.253054028482531,1.30176016456775,1.98354887175628,1.39497284126682,1224285.50949239,1224285.74550504,1224285.74550504,1224288.94560053,3.2,1224290.27557478,1224290.27557478,1224292.67560637,2.4,1224294.80952885,1224295.47872119,0.669192342087626,78,Shorter,Middle,78,S,Middle
230,Temporal,1243,4,3,93,1200,5,5,1,m,m,-800,800,-800,400,=,L,S,0.357027295588016,0.473638172582227,1.35081020197096,1.28673945527074,1.69273236784097,1224297.05955925,1224297.43567046,1224297.43567046,1224300.63572072,3.2,1224302.00574488,1224302.00574488,1224304.40584704,2.4,1224305.84292367,1224306.51069522,0.667771555949003,77,Shorter,Ring,77,S,Ring
230,Temporal,1243,4,3,94,1200,10,7.5,1,r,r,0,800,0,1200,S,=,L,0.424664301775622,0.415352147070995,1.93965358699631,1.46248166981018,1.01265439688466,1224308.37627362,1224308.81584315,1224308.81584315,1224309.61585184,0.8,1224311.58587998,1224311.58587998,1224313.18590829,1.6,1224314.792986,1224315.29469881,0.501712810713798,77,Longer,Ring,77,L,Ring
230,Temporal,1243,4,3,95,400,1.25,1.25,2,r,r,0,400,0,400,S,=,L,0.313142691901778,0.264860650479082,1.19037125502873,1.35481480327492,1.13951159451889,1224316.49301214,1224316.82596575,1224316.82596575,1224320.02600862,3.2,1224321.24602377,1224321.24602377,1224324.44606505,3.2,1224325.94303731,1224326.56670215,0.623664836166427,78,Equals to,Middle,77,L,Ring
230,Temporal,1243,4,3,96,800,7.5,3.33333333333333,1,m,m,-800,400,-800,0,S,=,L,0.472072487009641,0.303133743560422,1.96378382339561,1.43923829580378,1.54746713594968,1224327.87635288,1224328.36612697,1224328.36612697,1224329.96614405,1.6,1224331.95617838,1224331.95617838,1224334.3562074,2.4,1224335.94308488,1224336.51072281,0.567637927364558,77,Longer,Ring,66,S,Index
