Subject,Task,SequenceOrder,ListNo,RunNo,TrialNo,Aud_Probe_Dist,Aud_Standard_Vel,Aud_Probe_Vel,Main_Control,Aud_Std_StartCode,Aud_Probe_StartCode,Aud_Std_StartPt,Aud_Std_EndPt,Aud_Probe_StartPt,Aud_Probe_EndPt,RespIndex,RespMiddle,RespRing,ISI_Cross_Std,ISI_Cross_Probe,ISI_Std_Probe,ISI_Probe_Response,ITI,TrialOnset,StdOnset,StdOnsetByStop,StdOffset,StdDur,ProbeOnset,ProbeOnsetByStop,ProbeOffset,ProbeDur,RespWinStart,RespTime,RT,CorrectKC,CorrectResponse,CorrectFinger,SubjRespKC,SubjResponse,SubjRespFinger
219,Spatial,3421,3,0,1,1600,5,5,2,m,m,-800,800,-800,800,=,L,S,0.293657612579828,0.324427106246303,1.05104322881696,1.25495534546039,1.0180545232205,195330.816486312,195331.1213546,195331.1213546,195334.32085821,3.2,195335.401331477,195335.401331477,195338.601186686,3.2,195339.999809764,195341.501044211,1.50123444671044,66,Equals to,Index,66,=,Index
219,Spatial,3421,3,0,2,1600,3.75,5,2,r,r,0,1200,0,1600,L,S,=,0.377391897142745,0.383380784368728,1.33689079806336,1.70376202687646,1.62460651829071,195342.666541875,195343.061371333,195343.061371333,195346.261286532,3.2,195347.631500289,195347.631500289,195350.831339458,3.2,195352.683218133,195353.213184584,0.529966450500069,66,Longer,Index,77,=,Ring
219,Spatial,3421,3,0,3,800,7.5,3.33333333333333,1,r,r,0,1200,0,800,L,S,=,0.320250157230111,0.33445598378617,1.34855277459095,1.99758413573251,1.21991421940563,195354.983320854,195355.321646466,195355.321646466,195356.921467542,1.6,195358.301561684,195358.301561684,195360.701496709,2.4,195362.849951206,195363.541277614,0.691326407861197,78,Shorter,Middle,66,L,Index
219,Spatial,3421,3,0,4,800,5,5,1,m,m,-800,-400,-800,0,=,L,S,0.442074526166475,0.265664027335868,1.62495034584048,1.99540443795315,1.702727086806,195364.916711419,195365.371629046,195365.371629046,195366.171477005,0.8,195367.821675659,195367.821675659,195369.421603882,1.6,195371.56668322,195372.141080449,0.574397228774615,78,Longer,Middle,78,L,Middle
219,Spatial,3421,3,0,5,400,3.33333333333333,1.25,2,r,r,0,800,0,400,S,=,L,0.487570606602763,0.20005460642508,1.88884440350052,1.77341400002943,1.62853441036967,195374.000080521,195374.501552638,195374.501552638,195376.901547652,2.4,195378.821751368,195378.821751368,195382.021533755,3.2,195383.933411737,195384.445361939,0.511950201238506,66,Shorter,Index,77,L,Ring
219,Spatial,3421,3,0,6,400,3.33333333333333,1.25,2,r,r,0,800,0,400,=,L,S,0.216765990623983,0.346048464324026,1.53635663879229,1.86560881016516,1.28470586278376,195386.233453506,195386.461797551,195386.461797551,195388.861744766,2.4,195390.431901356,195390.431901356,195393.631744375,3.2,195395.650148884,195396.309275096,0.659126211918192,77,Shorter,Ring,78,L,Middle
219,Spatial,3421,3,0,7,1200,2.5,5,1,m,m,-800,0,-800,400,L,S,=,0.365564997372864,0.480319041303419,1.66091260646013,1.54582997308067,1.54208968299793,195397.750204832,195398.132324751,195398.132324751,195401.331816812,3.2,195403.022175725,195403.022175725,195405.422068404,2.4,195407.116893891,195407.605212843,0.488318951771362,66,Longer,Index,78,S,Middle
219,Spatial,3421,3,0,8,400,5,5,2,m,m,-800,0,-800,-400,L,S,=,0.285268540616421,0.454268777772836,1.80601639514993,1.40041127644589,1.24504470956307,195409.300314129,195409.602255643,195409.602255643,195411.202084739,1.6,195413.042372788,195413.042372788,195413.842224275,0.8,195415.383182781,195415.8611225,0.477939718723064,78,Shorter,Middle,78,S,Middle
219,Spatial,3421,3,0,9,800,7.5,3.33333333333333,1,l,l,-1600,-400,-1600,-800,=,L,S,0.23921758651752,0.28931721462436,1.91069435293936,1.1815534567195,1.25617208319996,195417.283763625,195417.542239975,195417.542239975,195419.142186806,1.6,195421.0725561,195421.0725561,195423.472452629,2.4,195424.800351663,195427.429181319,2.6288296559942,77,Shorter,Ring,78,L,Middle
219,Spatial,3421,3,0,10,800,3.75,3.33333333333333,1,r,r,0,1200,0,800,L,S,=,0.223151141212302,0.476934811241104,1.38412380307225,1.09333120113198,1.89551095644174,195428.867115036,195429.102462882,195429.102462882,195432.302362041,3.2,195433.712713922,195433.712713922,195436.112572275,2.4,195437.367111234,195437.805218874,0.438107639405644,78,Shorter,Middle,77,=,Ring
219,Spatial,3421,3,0,11,1200,6.66666666666667,7.5,1,l,l,-1600,0,-1600,-400,S,=,L,0.281397844784795,0.458357912217926,1.87531154533562,1.78821732805904,1.60262502448473,195439.867122783,195440.162604946,195440.162604946,195442.562489284,2.4,195444.472659591,195444.472659591,195446.072662562,1.6,195448.000543683,195448.469281589,0.468737906427123,66,Shorter,Index,66,S,Index
219,Spatial,3421,3,0,12,1200,10,7.5,1,m,m,-800,0,-800,400,=,L,S,0.268363652090381,0.476058638357027,1.32857767355191,1.31526859760413,1.19879618107969,195450.217182741,195450.5029693,195450.5029693,195451.302771705,0.8,195452.663051823,195452.663051823,195454.26261754,1.6,195455.733856754,195456.445189668,0.71133291372098,78,Longer,Middle,78,L,Middle
219,Spatial,3421,3,0,13,1600,20,20,2,r,r,0,1600,0,1600,=,L,S,0.40928511473052,0.396058118876953,1.53288274838556,1.83078408112763,1.85384027332023,195457.800563072,195458.223077757,195458.223077757,195459.022887861,0.8,195460.582967414,195460.582967414,195461.382940165,0.8,195463.367294513,195463.757248685,0.389954172598664,66,Equals to,Index,66,=,Index
219,Spatial,3421,3,0,14,800,15,5,1,l,l,-1600,-400,-1600,-800,=,L,S,0.49209485076827,0.247491484611703,1.61176522101243,1.418275123697,1.93283590364909,195465.767327968,195466.272745951,195466.272745951,195467.072825208,0.8,195468.713332108,195468.713332108,195470.313118858,1.6,195471.883970992,195472.237100064,0.353129072173033,77,Shorter,Ring,78,L,Middle
219,Spatial,3421,3,0,15,1600,6.66666666666667,5,2,m,m,-800,800,-800,800,L,S,=,0.398624392041331,0.407016695206096,1.30841390244806,1.66596930539827,1.82079557170495,195474.317384333,195474.733285361,195474.733285361,195477.133169378,2.4,195478.473106148,195478.473106148,195481.673101227,3.2,195483.484087174,195484.197166611,0.713079437526176,77,Equals to,Ring,66,L,Index
219,Spatial,3421,3,0,16,400,1.66666666666667,1.25,2,l,l,-1600,-1200,-1600,-1200,L,S,=,0.395886056089126,0.343833690063343,1.63044617150858,1.44231678108803,1.63942124892791,195486.167440441,195486.583568276,195486.583568276,195488.983130849,2.4,195490.64341841,195490.64341841,195493.843297679,3.2,195495.417024521,195497.045185947,1.62816142509109,77,Equals to,Ring,66,L,Index
219,Spatial,3421,3,0,17,1600,10,20,2,m,m,-800,800,-800,800,=,L,S,0.367567777764585,0.300930725029897,1.97912180528894,1.36980140719247,1.78177840477614,195498.834189554,195499.2134569,195499.2134569,195500.813318397,1.6,195502.823622607,195502.823622607,195503.623609473,0.8,195505.134162029,195505.565332964,0.431170934287366,66,Equals to,Index,66,=,Index
219,Spatial,3421,3,0,18,1200,10,7.5,1,l,l,-1600,-800,-1600,-400,L,S,=,0.208444640291661,0.389199646395214,1.28645324580645,1.09991260060531,1.0649690489818,195507.500866807,195507.723756895,195507.723756895,195508.523638538,0.8,195509.833835023,195509.833835023,195511.433702294,1.6,195512.684206846,195513.285305721,0.60109887571889,66,Longer,Index,66,L,Index
219,Spatial,3421,3,0,19,400,1.66666666666667,1.25,2,l,l,-1600,-1200,-1600,-1200,=,L,S,0.402992772482383,0.332118886691274,1.54803317415528,1.5171740518261,1.73579494426636,195514.500963048,195514.923729242,195514.923729242,195517.323540437,2.4,195518.893879563,195518.893879563,195522.093605489,3.2,195523.751005621,195524.325271254,0.574265633069444,66,Equals to,Index,66,=,Index
219,Spatial,3421,3,0,20,800,2.5,3.33333333333333,1,m,m,-800,-400,-800,0,=,L,S,0.472086557255997,0.304876564308355,1.3133873889195,1.29234474051247,1.27116324192709,195526.217692175,195526.703857537,195526.703857537,195528.303719675,1.6,195529.643987192,195529.643987192,195532.043916122,2.4,195533.467669879,195534.381276254,0.913606374466326,78,Longer,Middle,78,L,Middle
