Subject,Task,SequenceOrder,ListNo,RunNo,TrialNo,Aud_Probe_Dist,Aud_Standard_Vel,Aud_Probe_Vel,Main_Control,Aud_Std_StartCode,Aud_Probe_StartCode,Aud_Std_StartPt,Aud_Std_EndPt,Aud_Probe_StartPt,Aud_Probe_EndPt,RespIndex,RespMiddle,RespRing,ISI_Cross_Std,ISI_Cross_Probe,ISI_Std_Probe,ISI_Probe_Response,ITI,TrialOnset,StdOnset,StdOnsetByStop,StdOffset,StdDur,ProbeOnset,ProbeOnsetByStop,ProbeOffset,ProbeDur,RespWinStart,RespTime,RT,CorrectKC,CorrectResponse,CorrectFinger,SubjRespKC,SubjResponse,SubjRespFinger
210,Temporal,4132,3,3,1,1200,6.66666666666667,7.5,1,r,r,0,1600,0,1200,=,L,S,0.375293914969808,0.326107867064965,1.89116849370555,1.1001427616047,1.663511861153,4846.38476648214,4846.77109203411,4846.77109203411,4849.17217574022,2.4,4853.51236430736,4853.51236430736,4855.11255220724,1.6,4857.98647019497,4858.62777140452,0.641301209550875,77,Shorter,Ring,66,=,Index
210,Temporal,4132,3,3,2,800,2.5,3.33333333333333,1,l,l,-1600,-1200,-1600,-800,=,L,S,0.29430164802042,0.344485987440841,1.6767988638463,1.36414440203174,1.69200155933513,4860.45164301718,4860.76238130985,4860.76238130985,4862.36233759101,1.6,4865.67234354509,4865.67234354509,4868.07246356336,2.4,4872.00159791248,4872.57150505968,0.569907147201775,78,Longer,Middle,78,L,Middle
210,Temporal,4132,3,3,3,1600,10,20,2,m,m,-800,800,-800,800,S,=,L,0.212106732377123,0.489687662347688,1.85046285005416,1.73624493130968,1.80466349866686,4874.43501651486,4874.662628712,4874.662628712,4876.26265877752,1.6,4879.75255451701,4879.75255451701,4880.55272368208,0.8,4883.26811470067,4884.56362874022,1.29551403955884,66,Shorter,Index,66,S,Index
210,Temporal,4132,3,3,4,800,3.75,3.33333333333333,1,l,l,-1600,-400,-1600,-800,=,L,S,0.310713945894309,0.417735616580043,1.13669806344323,1.755646101489,1.6431694713314,4886.55163044176,4886.87268539121,4886.87268539121,4890.07269710688,3.2,4894.45288160627,4894.45288160627,4896.85292655698,2.4,4901.18495107135,4901.68361782014,0.498666748791948,77,Shorter,Ring,66,=,Index
210,Temporal,4132,3,3,5,1200,5,5,1,m,m,-800,800,-800,400,=,L,S,0.265109468445691,0.493430297977479,1.13240672378553,1.86604464085417,1.75269378055177,4903.50160785733,4903.78326228221,4903.78326228221,4906.98306547688,3.2,4911.35324321376,4911.35324321376,4913.75308381389,2.4,4918.18495780818,4918.94750371488,0.762545906701234,77,Shorter,Ring,77,S,Ring
210,Temporal,4132,3,3,6,800,2.5,3.33333333333333,1,l,l,-1600,-1200,-1600,-800,L,S,=,0.382298337794722,0.439535383016159,1.28258527296524,1.21126712577544,1.55760091183704,4920.86837031533,4921.26324587,4921.26324587,4922.86332854698,1.6,4925.78320357553,4925.78320357553,4928.1832199749,2.4,4931.95144957385,4932.42772982864,0.476280254792982,66,Longer,Index,66,L,Index
210,Temporal,4132,3,3,7,800,15,5,1,l,l,-1600,-400,-1600,-800,S,=,L,0.467415524478074,0.400330092097269,1.7162893092635,1.23185828069557,1.97539669523382,4934.15164898409,4934.63334273923,4934.63334273923,4935.43343106232,0.8,4937.98346201325,4937.98346201325,4939.58352672534,1.6,4942.56826753052,4943.34749864622,0.779231115697257,77,Longer,Ring,77,L,Ring
210,Temporal,4132,3,3,8,400,2.5,1.25,2,m,m,-800,0,-800,-400,L,S,=,0.300752453538977,0.46920810831063,1.11869003232709,1.05686423328217,1.90819518124168,4945.4849364428,4945.80368097955,4945.80368097955,4949.00364329178,3.2,4953.37364362542,4953.37364362542,4956.57371597258,3.2,4961.00159470446,4961.77949192735,0.777897222885258,77,Equals to,Ring,66,L,Index
210,Temporal,4132,3,3,9,1600,5,5,2,r,r,0,1200,0,1600,S,=,L,0.279697954706479,0.437911191643608,1.80338614077829,1.99169850059668,1.9869014449652,4963.85155325691,4964.14372772675,4964.14372772675,4966.54403894274,2.4,4970.7839670832,4970.7839670832,4973.98385785669,3.2,4979.33478560191,4979.83556964088,0.50078403896805,77,Longer,Ring,77,L,Ring
210,Temporal,4132,3,3,10,1600,20,20,2,l,l,-1600,0,-1600,0,=,L,S,0.461382530243829,0.26554451259056,1.67443262993749,1.21443794720129,1.836227538806,4981.98478759088,4982.46398069801,4982.46398069801,4983.26403405373,0.8,4985.77417878655,4985.77417878655,4986.57398737069,0.8,4988.75162903023,4989.28342270864,0.531793678413123,66,Equals to,Index,66,=,Index
210,Temporal,4132,3,3,11,1200,5,5,1,l,l,-1600,0,-1600,-400,S,=,L,0.454248224914352,0.355740738111778,1.71139880573672,1.68714070308754,1.22462335085583,4991.30142577037,4991.77434945297,4991.77434945297,4994.97414847722,3.2,4999.92429273526,4999.92429273526,5002.32434666841,2.4,5006.58492450898,5007.45931594846,0.874391439475403,66,Shorter,Index,77,L,Ring
210,Temporal,4132,3,3,12,1200,6.66666666666667,7.5,1,r,r,0,1600,0,1200,S,=,L,0.432385315712235,0.296367789737127,1.54709516764116,1.3708481727971,1.93381943997332,5008.85156320175,5009.29436650678,5009.29436650678,5011.69429019451,2.4,5015.68449037467,5015.68449037467,5017.28446879114,1.6,5020.43496807383,5020.99532977115,0.560361697322151,66,Shorter,Index,78,=,Middle
210,Temporal,4132,3,3,13,400,2.5,5,2,r,r,0,400,0,400,S,=,L,0.279276953572244,0.255795074756648,1.96435490796352,1.47663549017629,1.731276988674,5023.08494696509,5023.37441996515,5023.37441996515,5024.97438619116,1.6,5028.58480129552,5028.58480129552,5029.38455887222,0.8,5031.81860405134,5032.40334859065,0.584744539316489,66,Shorter,Index,66,S,Index
210,Temporal,4132,3,3,14,1600,5,5,2,m,m,-800,800,-800,800,=,L,S,0.302558824687014,0.220940902215352,1.02589831885121,1.83895084810499,1.44439024399009,5034.30154992057,5034.61490595382,5034.61490595382,5037.81492216071,3.2,5042.07472139028,5042.07472139028,5045.27500514566,3.2,5050.48492906436,5051.03541520702,0.550486142656155,66,Equals to,Index,78,L,Middle
210,Temporal,4132,3,3,15,400,10,5,2,r,r,0,800,0,400,=,L,S,0.217564485868128,0.391462034982812,1.58935172538309,1.7436056251163,1.69092075813713,5052.65157840775,5052.88488932347,5052.88488932347,5053.68484483471,0.8,5056.12518347282,5056.12518347282,5056.92527051269,0.8,5059.63523421079,5060.05131701865,0.41608280786113,66,Equals to,Index,66,=,Index
210,Temporal,4132,3,3,16,1200,10,5,1,l,l,-1600,0,-1600,-400,=,L,S,0.4495111585619,0.327138952416521,1.33230146396976,1.79057376804743,1.19638234431007,5061.91807691025,5062.38512896222,5062.38512896222,5063.98489147925,1.6,5066.96532742289,5066.96532742289,5069.36515679496,2.4,5073.71822172006,5074.25138329625,0.533161576187922,78,Longer,Middle,78,L,Middle
210,Temporal,4132,3,3,17,1600,3.75,5,2,l,l,-1600,-400,-1600,0,=,L,S,0.258304855850031,0.448944232002352,1.56411124210078,1.56784827676762,1.93865754864083,5075.61817077678,5075.89540102759,5075.89540102759,5079.09533543009,3.2,5083.89541001003,5083.89541001003,5087.09539157036,3.2,5092.0349118694,5092.77918267466,0.744270805263113,66,Equals to,Index,77,S,Ring
210,Temporal,4132,3,3,18,800,15,5,1,m,m,-800,400,-800,0,=,L,S,0.458862597720114,0.374292893849028,1.51380050945755,1.19559336287953,1.74464983615522,5094.88487940428,5095.35565179174,5095.35565179174,5096.15555372913,0.8,5098.51564065351,5098.51564065351,5100.11560463391,1.6,5103.06823609197,5103.57930951959,0.51107342762316,78,Longer,Middle,78,L,Middle
210,Temporal,4132,3,3,19,1200,20,7.5,1,l,l,-1600,0,-1600,-400,L,S,=,0.366674466723383,0.344929635786484,1.13750784992406,1.9554774656468,1.49095063602465,5105.50158732603,5105.88573784355,5105.88573784355,5106.68561026719,0.8,5108.67574115422,5108.67574115422,5110.27560440294,1.6,5114.00191678921,5114.61146249573,0.609545706520294,66,Longer,Index,66,L,Index
210,Temporal,4132,3,3,20,400,2.5,5,2,m,m,-800,-400,-800,-400,=,L,S,0.232911323588091,0.301338341499877,1.58980703400405,1.84499120941255,1.96109522901609,5116.26782726249,5116.515825756,5116.515825756,5118.11598574615,1.6,5121.3355660864,5121.3355660864,5122.13590591789,0.8,5124.95157853607,5125.57915874287,0.627580206801213,77,Shorter,Ring,77,S,Ring
210,Temporal,4132,3,3,21,800,1.66666666666667,5,1,m,m,-800,-400,-800,0,L,S,=,0.223443368361978,0.305699594565095,1.8208406914712,1.7990100389412,1.09646667052719,5127.70156634561,5127.9359112047,5127.9359112047,5130.33576527849,2.4,5134.60585742553,5134.60585742553,5136.20604725022,1.6,5139.76856093561,5140.42729033053,0.658729394916918,78,Shorter,Middle,78,S,Middle
210,Temporal,4132,3,3,22,400,5,5,2,r,r,0,400,0,400,=,L,S,0.206517928993975,0.420204977771024,1.48272491197346,1.69644335883144,1.62738663030844,5141.70161606985,5141.92611585042,5141.92611585042,5142.72596774276,0.8,5145.04613348167,5145.04613348167,5145.84614352918,0.8,5148.50148563194,5149.01126687095,0.509781239013137,66,Equals to,Index,66,=,Index
210,Temporal,4132,3,3,23,800,1.25,3.33333333333333,1,m,m,-800,-400,-800,0,L,S,=,0.418205303126739,0.322818318665977,1.71375694357999,1.36817112973635,1.11423396507413,5150.80152586045,5151.23616925746,5151.23616925746,5154.4360914695,3.2,5159.39626270053,5159.39626270053,5161.79634967625,2.4,5165.73483442791,5166.29126245672,0.556428028816299,78,Shorter,Middle,78,S,Middle
210,Temporal,4132,3,3,24,1600,6.66666666666667,5,2,m,m,-800,800,-800,800,S,=,L,0.491970260701012,0.338503368906509,1.02064318649726,1.19099406975536,1.0061232727338,5167.56823994159,5168.07643094169,5168.07643094169,5170.47627571224,2.4,5173.93652361484,5173.93652361484,5177.13654816258,3.2,5181.70155255114,5182.21922101686,0.517668465721727,77,Longer,Ring,77,L,Ring
210,Temporal,4132,3,3,25,800,5,5,1,l,l,-1600,-400,-1600,-800,L,S,=,0.438755046432478,0.363330800418878,1.72892847629061,1.08048294722243,1.76488240917661,5185.1182371827,5185.57680146748,5185.57680146748,5187.97692597697,2.4,5192.14689211316,5192.14689211316,5193.74683716627,1.6,5196.58473748168,5197.47502688317,0.89028940148728,78,Shorter,Middle,78,S,Middle
210,Temporal,4132,3,3,26,800,7.5,3.33333333333333,1,m,m,-800,400,-800,0,S,=,L,0.427264693381841,0.405027997305688,1.60362041696933,1.22515728649667,1.88792587855755,5199.40157295412,5199.84689326804,5199.84689326804,5201.44686462688,1.6,5204.68683447154,5204.68683447154,5207.08707318638,2.4,5210.90152451309,5211.46697765168,0.565453138593512,77,Longer,Ring,77,L,Ring
210,Temporal,4132,3,3,27,1600,7.5,20,2,l,l,-1600,-400,-1600,0,=,L,S,0.420127972575226,0.220116247960751,1.11127839943536,1.52494797382608,1.88977700116256,5213.53497218009,5213.96710690904,5213.96710690904,5215.56694770165,1.6,5218.30693486959,5218.30693486959,5219.10717332779,0.8,5221.60188656971,5222.12316180717,0.521275237457303,77,Shorter,Ring,77,S,Ring
210,Temporal,4132,3,3,28,400,1.66666666666667,1.25,2,l,l,-1600,-1200,-1600,-1200,S,=,L,0.383215755304763,0.249342879598771,1.46733868793556,1.48536966279785,1.23957462609219,5224.18488338222,5224.58714186358,5224.58714186358,5226.9873979017,2.4,5230.89719527062,5230.89719527062,5234.09739786321,3.2,5238.95155062633,5239.44304008223,0.491489455894225,77,Longer,Ring,77,L,Ring
210,Temporal,4132,3,3,29,800,1.66666666666667,5,1,r,r,0,400,0,800,S,=,L,0.474621909338132,0.388638651093486,1.8360477196687,1.81641312608461,1.68042127337439,5240.85158726187,5241.3374803092,5241.3374803092,5243.73755701927,2.4,5248.01743938776,5248.01743938776,5249.61755029527,1.6,5253.18485515169,5253.70709407698,0.522238925289457,66,Shorter,Index,66,S,Index
210,Temporal,4132,3,3,30,1200,2.5,5,1,r,r,0,800,0,1200,=,L,S,0.274183336002215,0.380876596092788,1.50643252743307,1.92420791856087,1.16791012380513,5255.56816840285,5255.85760707714,5255.85760707714,5259.05748469777,3.2,5263.80761176084,5263.80761176084,5266.20750144361,2.4,5270.70150411011,5272.17094134721,1.46943723710319,77,Shorter,Ring,66,=,Index
210,Temporal,4132,3,3,31,1600,6.66666666666667,5,2,m,m,-800,800,-800,800,=,L,S,0.386918273972956,0.499561460288716,1.6342877072593,1.49550321643035,1.35003589117477,5273.51832258007,5273.91790397255,5273.91790397255,5276.31779975055,2.4,5280.39799984088,5280.39799984088,5283.59815431324,3.2,5288.4520629464,5289.16310865677,0.711045710370854,78,Longer,Middle,78,L,Middle
210,Temporal,4132,3,3,32,1200,10,5,1,l,l,-1600,0,-1600,-400,=,L,S,0.382702017218576,0.306640144230611,1.96556455575628,1.72942523339515,1.19450074489416,5290.66820138124,5291.06799289874,5291.06799289874,5292.66804638277,1.6,5296.26831710078,5296.26831710078,5298.66824752534,2.4,5302.96815948456,5303.89103045305,0.922870968487587,78,Longer,Middle,78,L,Middle
210,Temporal,4132,3,3,33,800,5,5,1,m,m,-800,-400,-800,0,L,S,=,0.494763182450378,0.244833061356721,1.26524764372588,1.04442282784079,1.42407977570444,5305.25141922602,5305.75826638847,5305.75826638847,5306.55835920277,0.8,5308.66844259834,5308.66844259834,5310.26847202226,1.6,5313.0851981527,5313.60301162071,0.517813468018176,66,Longer,Index,66,L,Index
210,Temporal,4132,3,3,34,400,5,5,2,m,m,-800,0,-800,-400,=,L,S,0.325710797328662,0.22704017250421,1.59705382654455,1.17671379158917,1.66391210653701,5315.20149897728,5315.53859368303,5315.53859368303,5317.13822691705,1.6,5320.37862888138,5320.37862888138,5321.17846633765,0.8,5323.31821748548,5323.72301032468,0.404792839196489,77,Shorter,Ring,77,S,Ring
210,Temporal,4132,3,3,35,800,7.5,3.33333333333333,1,l,l,-1600,-400,-1600,-800,L,S,=,0.466244443685995,0.411273411549546,1.62002087910285,1.77970370627683,1.59255776590033,5325.55151816122,5326.02843871022,5326.02843871022,5327.62865419904,1.6,5330.88857693719,5330.88857693719,5333.28860713103,2.4,5337.63518801537,5339.218999343,1.58381132763043,66,Longer,Index,66,L,Index
210,Temporal,4132,3,3,36,1200,5,5,1,l,l,-1600,-800,-1600,-400,=,L,S,0.326085523790844,0.348464998622972,1.04796595036269,1.34201924765473,1.16497763947641,5340.98485945043,5341.32890143437,5341.32890143437,5342.92863283365,1.6,5345.61879727652,5345.61879727652,5348.01884543525,2.4,5351.9347114326,5352.55503959974,0.62032816714509,78,Longer,Middle,78,L,Middle
210,Temporal,4132,3,3,37,800,5,5,1,r,r,0,1200,0,800,S,=,L,0.320226072042948,0.333196674168235,1.17940686694648,1.10419693812633,1.20469406592325,5353.88483898329,5354.21889922725,5354.21889922725,5356.61898876938,2.4,5360.24899650711,5360.24899650711,5361.84900315412,1.6,5364.71819028151,5365.43488241982,0.716692138308645,66,Shorter,Index,66,S,Index
210,Temporal,4132,3,3,38,1600,15,20,2,m,m,-800,400,-800,800,L,S,=,0.228578952228316,0.498857712519,1.2274951723832,1.15777178984399,1.94452488601204,5366.80160317363,5367.04909095109,5367.04909095109,5367.84907822168,0.8,5369.90897542404,5369.90897542404,5370.70923954636,0.8,5372.83480164199,5373.4188583828,0.584056740810411,77,Equals to,Ring,77,=,Ring
210,Temporal,4132,3,3,39,400,3.33333333333333,1.25,2,r,r,0,800,0,400,S,=,L,0.309575867883883,0.489406306165348,1.43277274861891,1.28957514846907,1.18859671172528,5375.53496961368,5375.85928968123,5375.85928968123,5378.25938499778,2.4,5382.1293404192,5382.1293404192,5385.3290666215,3.2,5389.98502113441,5391.96283931179,1.97781817738542,77,Longer,Ring,66,S,Index
210,Temporal,4132,3,3,40,1200,2.5,5,1,l,l,-1600,-800,-1600,-400,=,L,S,0.379483594330005,0.321113229181465,1.67390937065573,1.17668245678955,1.67929794705279,5393.31826849293,5393.70931431878,5393.70931431878,5396.90938089152,3.2,5401.8196697284,5401.8196697284,5404.21968227815,2.4,5407.96796700364,5408.54671929095,0.578752287315183,77,Shorter,Ring,77,S,Ring
210,Temporal,4132,3,3,41,800,2.5,3.33333333333333,1,m,m,-800,-400,-800,0,L,S,=,0.303008534226627,0.263296887171763,1.85245822633281,1.40726149065806,1.93065109190051,5410.38472477794,5410.69987377101,5410.69987377101,5412.2998348642,1.6,5415.78969948595,5415.78969948595,5418.18965076261,2.4,5422.1685055011,5422.69870319185,0.53019769074217,66,Longer,Index,77,=,Ring
210,Temporal,4132,3,3,42,800,1.25,3.33333333333333,1,l,l,-1600,-1200,-1600,-800,L,S,=,0.480761014565789,0.319693817386076,1.40668307773714,1.58139841998983,1.25518678096893,5424.80106390623,5425.29979799769,5425.29979799769,5428.50001374314,3.2,5433.14015431837,5433.14015431837,5435.53975399655,2.4,5439.68484039482,5440.81083006757,1.12598967275699,78,Shorter,Middle,78,S,Middle
210,Temporal,4132,3,3,43,1200,3.33333333333333,7.5,1,l,l,-1600,-800,-1600,-400,L,S,=,0.358225305783798,0.272692192320829,1.95287455801944,1.21397353974494,1.46493334048573,5442.23480780138,5442.61014686295,5442.61014686295,5445.01017641518,2.4,5449.40030993279,5449.40030993279,5451.00037272006,1.6,5453.96805297845,5454.6348409081,0.666787929649217,78,Shorter,Middle,78,S,Middle
210,Temporal,4132,3,3,44,800,3.75,3.33333333333333,1,r,r,0,1200,0,800,S,=,L,0.222453550328816,0.206393604049711,1.14410103576784,1.40932915287548,1.97810473584678,5456.26809320696,5456.51031502711,5456.51031502711,5459.71040790558,3.2,5464.09023118242,5464.09023118242,5466.49011476996,2.4,5470.46811681796,5471.41868707478,0.950570256820356,66,Shorter,Index,78,=,Middle
210,Temporal,4132,3,3,45,1200,3.33333333333333,7.5,1,l,l,-1600,-800,-1600,-400,S,=,L,0.431072991644662,0.36849794625672,1.9306977449437,1.17995857500645,1.19847129676381,5473.56807761601,5474.01041415479,5474.01041415479,5476.4106031454,2.4,5480.78036512348,5480.78036512348,5482.38059986039,1.6,5485.31848792118,5486.00277236693,0.684284445745107,66,Shorter,Index,66,S,Index
210,Temporal,4132,3,3,46,800,1.66666666666667,5,1,m,m,-800,-400,-800,0,S,=,L,0.259304669792886,0.422013169461462,1.3966242068741,1.17829956652288,1.99895590696921,5487.3681130325,5487.64064450313,5487.64064450313,5490.04044339906,2.4,5493.88074328434,5493.88074328434,5495.48060364585,1.6,5498.41815229861,5498.95460433621,0.53645203760334,66,Shorter,Index,66,S,Index
210,Temporal,4132,3,3,47,1600,15,20,2,r,r,0,1200,0,1600,=,L,S,0.309021536696491,0.219470423039894,1.91724757562967,1.92765333449237,1.47850692734113,5501.11804919299,5501.44078995455,5501.44078995455,5502.24062773163,0.8,5505.00109679481,5505.00109679481,5505.80089254688,0.8,5508.68500496601,5509.53881730737,0.853812341363664,66,Equals to,Index,66,=,Index
210,Temporal,4132,3,3,48,1200,3.33333333333333,7.5,1,l,l,-1600,-800,-1600,-400,=,L,S,0.274687775781759,0.397572177283545,1.61953818131126,1.39540574305461,1.01314481175378,5511.1847326055,5511.47084553021,5511.47084553021,5513.87083690706,2.4,5517.94095356334,5517.94095356334,5519.54078312789,1.6,5522.70148357881,5523.5945819186,0.893098339787684,77,Shorter,Ring,77,S,Ring
210,Temporal,4132,3,3,49,1200,2.5,5,1,m,m,-800,0,-800,400,L,S,=,0.465146942383336,0.487199303399592,1.0703943859975,1.49198372983945,1.37902348800329,5526.50129764224,5526.98121255284,5526.98121255284,5530.18113380247,3.2,5534.49122380655,5534.49122380655,5536.89117540402,2.4,5540.95141364407,5541.75465675518,0.803243111107804,78,Shorter,Middle,77,=,Ring
210,Temporal,4132,3,3,50,1200,3.33333333333333,7.5,1,m,m,-800,0,-800,400,S,=,L,0.28253600905323,0.438514532466415,1.5356624702668,1.74865965283246,1.83428429311964,5543.3014523969,5543.60124558256,5543.60124558256,5546.00137714969,2.4,5549.98148395094,5549.98148395094,5551.58142804165,1.6,5555.08491392253,5555.74652251129,0.661608588755371,66,Shorter,Index,78,=,Middle
210,Temporal,4132,3,3,51,1200,20,7.5,1,r,r,0,1600,0,1200,S,=,L,0.357575653815874,0.367603207492237,1.99893403337712,1.86486411171899,1.04944551675703,5557.75141120598,5558.12152248562,5558.12152248562,5558.92151168103,0.8,5561.76159117565,5561.76159117565,5563.36179254919,1.6,5566.98506893384,5567.52265885451,0.537589920671962,77,Longer,Ring,77,L,Ring
210,Temporal,4132,3,3,52,800,5,5,1,l,l,-1600,-400,-1600,-800,=,L,S,0.487692647737422,0.4277706927803,1.83131644791137,1.33951905056123,1.41182910850242,5568.73483571111,5569.24181472299,5569.24181472299,5571.64176920767,2.4,5575.91199544975,5575.91199544975,5577.51182597671,1.6,5580.61814928307,5581.18664522429,0.568495941218316,77,Shorter,Ring,66,=,Index
210,Temporal,4132,3,3,53,800,5,5,1,r,r,0,400,0,800,=,L,S,0.247898646233301,0.338851472124888,1.95629822301201,1.92661461893487,1.08524990009844,5582.76816827452,5583.03192486058,5583.03192486058,5583.83189320388,0.8,5586.62183815434,5586.62183815434,5588.22197697158,1.6,5591.91841920549,5592.82664365878,0.908224453290131,78,Longer,Middle,78,L,Middle
210,Temporal,4132,3,3,54,1200,20,7.5,1,r,r,0,1600,0,1200,L,S,=,0.296158357492028,0.200819215055207,1.43661782471222,1.35143807327437,1.396593397455,5594.0848866544,5594.3921160198,5594.3921160198,5595.19202501482,0.8,5597.47219995432,5597.47219995432,5599.07219088205,1.6,5602.20135365419,5602.81045986259,0.609106208407866,66,Longer,Index,66,L,Index
210,Temporal,4132,3,3,55,1200,5,5,1,m,m,-800,800,-800,400,S,=,L,0.339426980098244,0.222919500905199,1.65453374149059,1.33510453479092,1.6945523397611,5604.36811720292,5604.72235714707,5604.72235714707,5607.92227326389,3.2,5612.82242894246,5612.82242894246,5615.22235391339,2.4,5619.13479471268,5619.65854333002,0.523748617345518,66,Shorter,Index,78,=,Middle
210,Temporal,4132,3,3,56,1600,10,20,2,m,m,-800,800,-800,800,S,=,L,0.222489352473189,0.323677966178399,1.84355933609535,1.83680070293411,1.06249765653467,5621.53481562894,5621.77257253323,5621.77257253323,5623.37226062431,1.6,5626.86265232299,5626.86265232299,5627.66235279701,0.8,5630.46806966013,5631.45839717284,0.990327512709882,66,Shorter,Index,66,S,Index
210,Temporal,4132,3,3,57,800,1.25,3.33333333333333,1,m,m,-800,-400,-800,0,S,=,L,0.262127482247061,0.438038798349852,1.98537215811381,1.07416888974627,1.1680078497617,5632.68459273603,5632.96253901588,5632.96253901588,5636.16258954854,3.2,5641.38261997336,5641.38261997336,5643.78256098437,2.4,5647.41841695988,5647.9625287759,0.544111816018813,66,Shorter,Index,78,=,Middle
210,Temporal,4132,3,3,58,800,5,5,1,r,r,0,1200,0,800,S,=,L,0.420296535553052,0.416527551993352,1.72929489797164,1.16829817792877,1.45626346292091,5649.2848291026,5649.72271740721,5649.72271740721,5652.12283678387,2.4,5656.29306341092,5656.29306341092,5657.89280475505,1.6,5660.83476859943,5661.41053743241,0.575768832974973,66,Shorter,Index,66,S,Index
210,Temporal,4132,3,3,59,1200,10,5,1,l,l,-1600,0,-1600,-400,=,L,S,0.326399641026884,0.228671277597917,1.2995802335886,1.40629613508449,1.17724147233473,5663.03477809516,5663.37316659352,5663.37316659352,5664.97303754148,1.6,5667.91310702709,5667.91310702709,5670.31296078009,2.4,5674.28509344307,5674.86650260876,0.581409165684818,78,Longer,Middle,78,L,Middle
210,Temporal,4132,3,3,60,400,5,5,2,r,r,0,800,0,400,S,=,L,0.331343809944604,0.384587098217892,1.18175403216238,1.51387495133437,1.42773157412601,5676.21808088818,5676.56326749203,5676.56326749203,5678.1630174978,1.6,5680.98315949739,5680.98315949739,5681.78326386055,0.8,5684.25152573213,5685.05048197224,0.798956240103507,66,Shorter,Index,66,S,Index
210,Temporal,4132,3,3,61,800,5,5,1,r,r,0,400,0,800,L,S,=,0.260466074782289,0.373709420817573,1.00508238264086,1.43905291270453,1.93516469871389,5686.6514433503,5686.92349393942,5686.92349393942,5687.72307475446,0.8,5689.57312828982,5689.57312828982,5691.17332388894,1.6,5694.38507733884,5694.91460968718,0.529532348344219,66,Longer,Index,66,L,Index
210,Temporal,4132,3,3,62,1600,7.5,20,2,l,l,-1600,-400,-1600,0,S,=,L,0.344225724598466,0.293643346443091,1.87585892676654,1.65532616111657,1.1206087350905,5697.01812015429,5697.37346590136,5697.37346590136,5698.97327846344,1.6,5702.49340204902,5702.49340204902,5703.29358597096,0.8,5705.91809936635,5706.66644595521,0.748346588852655,66,Shorter,Index,66,S,Index
210,Temporal,4132,3,3,63,400,10,5,2,r,r,0,800,0,400,L,S,=,0.420530125630062,0.436006771302316,1.72974303141485,1.19494526280239,1.79186109186124,5707.95144444102,5708.38368631769,5708.38368631769,5709.18368353313,0.8,5711.76371103224,5711.76371103224,5712.56351704996,0.8,5714.71813606605,5715.21845301797,0.500316951924106,77,Equals to,Ring,77,=,Ring
210,Temporal,4132,3,3,64,1200,6.66666666666667,7.5,1,l,l,-1600,0,-1600,-400,L,S,=,0.219212352551561,0.240263906204886,1.36196170628737,1.75647519384248,1.73995453540582,5717.18463508183,5717.42359819992,5717.42359819992,5719.82359342639,2.4,5723.62364458782,5723.62364458782,5725.2234581123,1.6,5728.75137206819,5729.29029588168,0.538923813483962,78,Shorter,Middle,78,S,Middle
210,Temporal,4132,3,3,65,800,3.75,3.33333333333333,1,l,l,-1600,-400,-1600,-800,L,S,=,0.459781364380016,0.216106907860965,1.21072214678186,1.29917486335327,1.22341682798909,5731.201189083,5731.67396487608,5731.67396487608,5734.87382741904,3.2,5739.3239139328,5739.3239139328,5741.7238331293,2.4,5745.58512853876,5746.13043501972,0.545306480960789,78,Shorter,Middle,78,S,Middle
210,Temporal,4132,3,3,66,1200,10,7.5,1,l,l,-1600,-800,-1600,-400,S,=,L,0.361740182455335,0.329737408582611,1.68941301592778,1.26880556900248,1.94165359806072,5747.53466870183,5747.91406654451,5747.91406654451,5748.71425848648,0.8,5751.24399232386,5751.24399232386,5752.84413948194,1.6,5755.88477706859,5756.39436871389,0.509591645301043,77,Longer,Ring,77,L,Ring
210,Temporal,4132,3,3,67,800,3.75,3.33333333333333,1,r,r,0,1200,0,800,L,S,=,0.408209060076135,0.2911878911904,1.50759741078063,1.731970272432,1.64546911058813,5758.50142788766,5758.92414388334,5758.92414388334,5762.1240696242,3.2,5766.87422395541,5766.87422395541,5769.27425671566,2.4,5773.56837467824,5774.17042774394,0.602053065707878,78,Shorter,Middle,77,=,Ring
210,Temporal,4132,3,3,68,800,15,5,1,m,m,-800,400,-800,0,L,S,=,0.234684156005562,0.286600361614736,1.84610375262327,1.06365529081369,1.06157034333731,5775.9842085441,5776.23461240758,5776.23461240758,5777.03445050546,0.8,5779.72465793573,5779.72465793573,5781.32436174608,1.6,5784.15147575125,5784.81036939656,0.658893645306307,66,Longer,Index,66,L,Index
210,Temporal,4132,3,3,69,1600,20,20,2,r,r,0,1600,0,1600,L,S,=,0.268782740212124,0.497832851708427,1.60325771108135,1.12361246706244,1.26829171780992,5786.03463148885,5786.31451252281,5786.31451252281,5787.11460084589,0.8,5789.55480827617,5789.55480827617,5790.35449399331,0.8,5792.45147427557,5793.01844191824,0.566967642673262,77,Equals to,Ring,77,=,Ring
210,Temporal,4132,3,3,70,800,1.66666666666667,5,1,m,m,-800,-400,-800,0,L,S,=,0.392259132384859,0.427691608836559,1.9827485930047,1.71597156140687,1.3803649479537,5794.45143353377,5794.85446225962,5794.85446225962,5797.25464675901,2.4,5801.68479866495,5801.68479866495,5803.28473986845,1.6,5806.76805599398,5807.25827315096,0.49021715697927,78,Shorter,Middle,77,=,Ring
210,Temporal,4132,3,3,71,1600,3.75,5,2,r,r,0,1200,0,1600,S,=,L,0.419041626952603,0.350160063872808,1.3747338638098,1.45257578769269,1.91847330377674,5808.80146330415,5809.23476093869,5809.23476093869,5812.43496256888,3.2,5817.05489328857,5817.05489328857,5820.25494221723,3.2,5825.08504641357,5825.59416134778,0.50911493420972,78,Equals to,Middle,77,L,Ring
210,Temporal,4132,3,3,72,1200,5,5,1,r,r,0,800,0,1200,L,S,=,0.444662120465325,0.36203551728247,1.37078246467949,1.87812828918641,1.42446364193741,5827.68459979366,5828.14505135391,5828.14505135391,5829.74514718375,1.6,5832.75526721485,5832.75526721485,5835.15503659704,2.4,5839.60141402904,5840.18627084889,0.584856819856213,66,Longer,Index,66,L,Index
210,Temporal,4132,3,3,73,400,3.33333333333333,1.25,2,r,r,0,800,0,400,L,S,=,0.323930379155728,0.205250526208392,1.49039979568623,1.15274430451721,1.82566681407841,5842.6680262236,5843.00547862307,5843.00547862307,5845.40511711823,2.4,5849.34516254373,5849.34516254373,5852.54543603346,3.2,5857.0679922828,5857.67409514717,0.606102864372588,66,Longer,Index,77,=,Ring
210,Temporal,4132,3,3,74,1200,10,5,1,l,l,-1600,0,-1600,-400,L,S,=,0.245148506721117,0.381973440151812,1.81255364437209,1.06129105691526,1.30224588816753,5859.66807434383,5859.92562566566,5859.92562566566,5861.52554537545,1.6,5864.97578362834,5864.97578362834,5867.37574100023,2.4,5871.00141762201,5871.66620118363,0.664783561615877,66,Longer,Index,66,L,Index
210,Temporal,4132,3,3,75,400,5,5,2,m,m,-800,-400,-800,-400,=,L,S,0.23772958123415,0.467891977234136,1.40631112954766,1.02224776291063,1.07839937954375,5873.13465773042,5873.38574425958,5873.38574425958,5874.18589128934,0.8,5876.43571455336,5876.43571455336,5877.23591611938,0.8,5879.23505834738,5879.99420760736,0.759149259974947,66,Equals to,Index,78,L,Middle
210,Temporal,4132,3,3,76,800,15,5,1,l,l,-1600,-400,-1600,-800,L,S,=,0.331958719009092,0.35725406787755,1.97341674699538,1.52163811782278,1.00291879525177,5881.25139035388,5881.59581024204,5881.59581024204,5882.39585461531,0.8,5885.20603636863,5885.20603636863,5886.80592367746,1.6,5890.10124175861,5890.61818810006,0.51694634145133,66,Longer,Index,66,L,Index
210,Temporal,4132,3,3,77,1200,5,5,1,r,r,0,1600,0,1200,L,S,=,0.444925426143733,0.486308172600777,1.23235406601501,1.59556028458438,1.06138401559471,5891.80142288316,5892.26610581575,5892.26610581575,5895.46602193256,3.2,5899.93604465814,5899.93604465814,5902.33585446132,2.4,5906.50138072984,5907.15418074985,0.652800020017821,78,Shorter,Middle,77,=,Ring
210,Temporal,4132,3,3,78,1200,10,7.5,1,l,l,-1600,-800,-1600,-400,S,=,L,0.372070444626777,0.278579791221905,1.53194896082859,1.92516332838434,1.76600730312836,5908.384611535,5908.77619277863,5908.77619277863,5909.57620507174,0.8,5911.94636644775,5911.94636644775,5913.54627011746,1.6,5917.23472054336,5917.88214970396,0.647429160603679,77,Longer,Ring,77,L,Ring
210,Temporal,4132,3,3,79,1200,10,7.5,1,m,m,-800,0,-800,400,=,L,S,0.352784379860874,0.499348536053375,1.67043513236885,1.66524052012535,1.63381895844898,5919.81797977154,5920.18643764003,5920.18643764003,5920.98625103619,0.8,5923.50607980516,5923.50607980516,5925.10625198576,1.6,5928.53519706197,5929.29832554427,0.763128482300999,78,Longer,Middle,78,L,Middle
210,Temporal,4132,3,3,80,1200,10,7.5,1,m,m,-800,0,-800,400,S,=,L,0.275454103373917,0.427227573995126,1.63291181712545,1.90749393591475,1.68888492418262,5931.1013033525,5931.39645293585,5931.39645293585,5932.19653869252,0.8,5934.66645587439,5934.66645587439,5936.26640990994,1.6,5939.93453755816,5940.58632095809,0.651783399931446,77,Longer,Ring,77,L,Ring
210,Temporal,4132,3,3,81,400,1.25,1.25,2,r,r,0,400,0,400,S,=,L,0.375074641096275,0.324102123034061,1.91709317363375,1.70153183951678,1.87732689835261,5942.48471605214,5942.87670760094,5942.87670760094,5946.07687843418,3.2,5951.23674702104,5951.23674702104,5954.43655759414,3.2,5959.51836364266,5960.01010204055,0.491738397891822,78,Equals to,Middle,78,=,Middle
210,Temporal,4132,3,3,82,800,5,5,1,m,m,-800,-400,-800,0,S,=,L,0.463680012134118,0.375208557838051,1.24559660761498,1.42794100678204,1.30293504314282,5962.05135006121,5962.52704194031,5962.52704194031,5963.32683159716,0.8,5965.41672470608,5965.41672470608,5967.01703932257,1.6,5970.20138348873,5970.75408348283,0.552699994097566,77,Longer,Ring,77,L,Ring
210,Temporal,4132,3,3,83,1200,5,5,1,r,r,0,800,0,1200,=,L,S,0.295479281261792,0.423815698507553,1.49270285048545,1.82974060506052,1.86849431167607,5972.23452742083,5972.54695794163,5972.54695794163,5974.1469357165,1.6,5977.27697521359,5977.27697521359,5979.67722162767,2.4,5984.06790309997,5984.64219143383,0.57428833385984,78,Longer,Middle,66,=,Index
210,Temporal,4132,3,3,84,1200,2.5,5,1,r,r,0,800,0,1200,S,=,L,0.263622889541457,0.466662231108525,1.36528599686555,1.2711937909601,1.62508737963122,5986.68470309176,5986.9672240016,5986.9672240016,5990.16734254419,3.2,5994.76733256084,5994.76733256084,5997.16727645907,2.4,6001.00137688022,6001.76998240724,0.768605527025102,66,Shorter,Index,66,S,Index
210,Temporal,4132,3,3,85,1200,6.66666666666667,7.5,1,l,l,-1600,0,-1600,-400,=,L,S,0.227384607505815,0.31940741587202,1.86934205949976,1.96796819273156,1.04141248313076,6003.56808242803,6003.80747670339,6003.80747670339,6006.20739108788,2.4,6010.51748365837,6010.51748365837,6012.11755478649,1.6,6015.85179642447,6016.40998020013,0.55818377565447,77,Shorter,Ring,77,S,Ring
210,Temporal,4132,3,3,86,800,7.5,3.33333333333333,1,m,m,-800,400,-800,0,L,S,=,0.298758847760719,0.499267878387456,1.73483008023766,1.70036466398558,1.73315379664875,6017.61799946875,6017.92759378312,6017.92759378312,6019.52763860551,1.6,6022.89786670824,6022.89786670824,6025.29776152383,2.4,6029.56798201715,6030.17786039487,0.609878377718815,66,Longer,Index,77,=,Ring
210,Temporal,4132,3,3,87,800,2.5,3.33333333333333,1,l,l,-1600,-1200,-1600,-800,L,S,=,0.34561444083421,0.294705466826283,1.19798079251936,1.9174415409393,1.26954545695512,6032.06803013738,6032.4277971713,6032.4277971713,6034.02769121697,1.6,6036.86797602458,6036.86797602458,6039.26804535621,2.4,6043.75173264913,6044.25795106622,0.506218417088348,66,Longer,Index,66,L,Index
210,Temporal,4132,3,3,88,1600,5,5,2,m,m,-800,800,-800,800,=,L,S,0.264912174175377,0.203919482031513,1.46746617264886,1.74957409274159,1.21230168403705,6045.71802378551,6045.99818520001,6045.99818520001,6049.19819595328,3.2,6053.89823434681,6053.89823434681,6057.09800225331,3.2,6062.20134980457,6062.77794341831,0.576593613739533,66,Equals to,Index,66,=,Index
210,Temporal,4132,3,3,89,1200,5,5,1,r,r,0,800,0,1200,L,S,=,0.366467479526507,0.425548550054196,1.96338349387854,1.23702235408915,1.34125698078161,6064.15129417758,6064.52806048521,6064.52806048521,6066.12827629482,1.6,6069.72816525899,6069.72816525899,6072.12824902669,2.4,6075.93474639996,6076.53796012565,0.603213725687056,66,Longer,Index,66,L,Index
210,Temporal,4132,3,3,90,1200,20,7.5,1,m,m,-800,800,-800,400,S,=,L,0.403885771527693,0.413219220629574,1.49118755750437,1.5536884474227,1.2889393280981,6078.05134139957,6078.4684722404,6078.4684722404,6079.26851116004,0.8,6081.60850050943,6081.60850050943,6083.20855784309,1.6,6086.53467126824,6087.05790660312,0.523235334878336,77,Longer,Ring,77,L,Ring
210,Temporal,4132,3,3,91,800,1.25,3.33333333333333,1,m,m,-800,-400,-800,0,L,S,=,0.404785612867981,0.471375763593538,1.36282354701859,1.72058344793921,1.25875362661661,6088.51796745276,6088.93857866952,6088.93857866952,6092.13837833537,3.2,6096.74881814146,6096.74881814146,6099.14871744827,2.4,6103.43491065035,6103.96194876671,0.52703811635638,78,Shorter,Middle,77,=,Ring
210,Temporal,4132,3,3,92,400,2.5,1.25,2,m,m,-800,0,-800,-400,=,L,S,0.224018420747475,0.30874959093426,1.7797174342901,1.42788248696007,1.32264421841511,6105.3846529184,6105.62881398387,6105.62881398387,6108.82882986996,3.2,6113.84903397673,6113.84903397673,6117.04891544698,3.2,6121.83467556698,6122.3378627303,0.503187163319126,66,Equals to,Index,78,L,Middle
210,Temporal,4132,3,3,93,400,1.66666666666667,1.25,2,l,l,-1600,-1200,-1600,-1200,=,L,S,0.354537518795734,0.235812736741212,1.1962231115863,1.85125808570969,1.92638896054458,6123.83474582252,6124.20902335179,6124.20902335179,6126.60894671871,2.4,6130.24907349948,6130.24907349948,6133.44916028272,3.2,6138.66832649384,6139.36194690606,0.69362041221666,78,Longer,Middle,66,=,Index
210,Temporal,4132,3,3,94,400,1.25,1.25,2,r,r,0,400,0,400,=,L,S,0.391975465438181,0.341383391139323,1.7312726348196,1.50394609223576,1.18250800778591,6141.45130681716,6141.8590978419,6141.8590978419,6145.0593232114,3.2,6150.02934401218,6150.02934401218,6153.22934738701,3.2,6158.10121673609,6158.79381411219,0.692597376100821,66,Equals to,Index,66,=,Index
210,Temporal,4132,3,3,95,1600,5,5,2,r,r,0,1200,0,1600,S,=,L,0.457079254327288,0.333827827145106,1.03679679749039,1.75979073893552,1.63451131466399,6160.13465644721,6160.60962171082,6160.60962171082,6163.00941932355,2.4,6166.48958290667,6166.48958290667,6169.68952853722,3.2,6174.83464092042,6175.52187930676,0.687238386342869,77,Longer,Ring,78,=,Middle
210,Temporal,4132,3,3,96,800,7.5,3.33333333333333,1,r,r,0,1200,0,800,L,S,=,0.406496163592643,0.317000469910633,1.21491678808954,1.62615860554141,1.16310845008889,6177.31787775665,6177.73983409427,6177.73983409427,6179.33962355864,1.6,6182.19991579601,6182.19991579601,6184.59955781999,2.4,6188.78462860164,6189.32973458164,0.545105979997061,66,Longer,Index,66,L,Index
