Subject,Task,SequenceOrder,ListNo,RunNo,TrialNo,Aud_Probe_Dist,Aud_Standard_Vel,Aud_Probe_Vel,Main_Control,Aud_Std_StartCode,Aud_Probe_StartCode,Aud_Std_StartPt,Aud_Std_EndPt,Aud_Probe_StartPt,Aud_Probe_EndPt,RespIndex,RespMiddle,RespRing,ISI_Cross_Std,ISI_Cross_Probe,ISI_Std_Probe,ISI_Probe_Response,ITI,TrialOnset,StdOnset,StdOnsetByStop,StdOffset,StdDur,ProbeOnset,ProbeOnsetByStop,ProbeOffset,ProbeDur,RespWinStart,RespTime,RT,CorrectKC,CorrectResponse,CorrectFinger,SubjRespKC,SubjResponse,SubjRespFinger
219,Spatial,3421,3,1,1,1200,6.66666666666667,7.5,1,r,r,0,1600,0,1200,S,=,L,0.206844985310796,0.257701227431801,1.44409393037066,1.47279749541397,1.73066114687198,195567.984555942,195568.202366128,195568.202366128,195570.602227047,2.4,195572.072577273,195572.072577273,195573.67248272,1.6,195575.284612929,195575.669204212,0.384591282578185,66,Shorter,Index,78,=,Middle
219,Spatial,3421,3,1,2,1200,10,5,1,l,l,-1600,0,-1600,-400,S,=,L,0.317449391979113,0.32550004753238,1.61805369762141,1.74500557892876,1.51569927197112,195577.567965466,195577.902495988,195577.902495988,195579.502362297,1.6,195581.15265655,195581.15265655,195583.552527414,2.4,195585.451319876,195585.853288832,0.401968955324264,66,Shorter,Index,77,L,Ring
219,Spatial,3421,3,1,3,800,5,5,1,r,r,0,1200,0,800,=,L,S,0.349130344233638,0.459559809205861,1.97614694210122,1.92351950656288,1.16382655090233,195587.518037743,195587.882835628,195587.882835628,195590.282715475,2.4,195592.292694071,195592.292694071,195593.892524129,1.6,195595.951391094,195596.397293264,0.445902169478359,77,Shorter,Ring,77,S,Ring
219,Spatial,3421,3,1,4,400,10,5,2,r,r,0,800,0,400,S,=,L,0.340510025969651,0.358280816439869,1.72867070760611,1.45435198987895,1.60209869557347,195597.70146151,195598.052997755,195598.052997755,195598.852809463,0.8,195600.61310806,195600.61310806,195601.412903086,0.8,195603.018103187,195603.405337378,0.387234191352036,66,Shorter,Index,78,=,Middle
219,Spatial,3421,3,1,5,800,5,5,1,l,l,-1600,-400,-1600,-800,S,=,L,0.407487889756123,0.42385602282274,1.42469036316437,1.59241781642654,1.90353506426642,195605.151516785,195605.573157604,195605.573157604,195607.97300088,2.4,195609.423063256,195609.423063256,195611.023043129,1.6,195612.751508572,195613.269298977,0.51779040452675,66,Shorter,Index,78,=,Middle
219,Spatial,3421,3,1,6,1200,3.33333333333333,7.5,1,l,l,-1600,-800,-1600,-400,=,L,S,0.400469578671839,0.283496372191146,1.13564113719697,1.31867406260559,1.23310677119703,195615.31826686,195615.733242052,195615.733242052,195618.133115162,2.4,195619.30319585,195619.30319585,195620.903113167,1.6,195622.368220568,195623.237297999,0.86907743071788,78,Longer,Middle,77,S,Ring
219,Spatial,3421,3,1,7,1600,5,5,2,r,r,0,1200,0,1600,S,=,L,0.413032517319229,0.424959933070814,1.35134801907466,1.80894589753261,1.25447701654159,195624.618301892,195625.043302793,195625.043302793,195627.443123933,2.4,195628.813360467,195628.813360467,195632.013356187,3.2,195633.968284536,195634.533297339,0.565012803213904,77,Longer,Ring,77,L,Ring
219,Spatial,3421,3,1,8,1200,5,5,1,r,r,0,800,0,1200,=,L,S,0.409991304004718,0.296804309212211,1.8735322967277,1.31979737187042,1.58134019655108,195635.935025693,195636.363316741,195636.363316741,195637.963340243,1.6,195639.87326225,195639.87326225,195642.273293836,2.4,195643.73501485,195644.309114374,0.5740995243832,78,Longer,Middle,78,L,Middle
219,Spatial,3421,3,1,9,800,15,5,1,l,l,-1600,-400,-1600,-800,S,=,L,0.476524726297737,0.415506306354473,1.1795810658301,1.68135862966064,1.55817959582373,195646.051750521,195646.543619104,195646.543619104,195647.343560416,0.8,195648.543844307,195648.543844307,195650.143641964,1.6,195651.96839425,195652.509329248,0.540934997145087,66,Shorter,Index,77,L,Ring
219,Spatial,3421,3,1,10,800,5,5,1,m,m,-800,-400,-800,0,=,L,S,0.231632670450817,0.498882869391785,1.2813759982264,1.24109826356743,1.91949424603718,195654.218482631,195654.463821171,195654.463821171,195655.263654052,0.8,195656.583647193,195656.583647193,195658.183524089,1.6,195659.568465276,195659.997146144,0.428680867946241,78,Longer,Middle,78,L,Middle
219,Spatial,3421,3,1,11,800,15,5,1,l,l,-1600,-400,-1600,-800,=,L,S,0.345928966879383,0.318243940775583,1.99740615080716,1.93015497696952,1.74550904041053,195662.068503131,195662.433797617,195662.433797617,195663.233652634,0.8,195665.263942177,195665.263942177,195666.863778331,1.6,195668.951845671,195671.229300401,2.27745473000687,77,Shorter,Ring,78,L,Middle
219,Spatial,3421,3,1,12,1200,5,5,1,r,r,0,800,0,1200,=,L,S,0.410904959914998,0.2232670624263,1.29263413277317,1.85060079606207,1.55722226602238,195673.151907522,195673.573907961,195673.573907961,195675.173816295,1.6,195676.49417098,195676.49417098,195678.894080982,2.4,195680.884820155,195681.629311822,0.744491666526301,78,Longer,Middle,78,L,Middle
219,Spatial,3421,3,1,13,800,1.25,3.33333333333333,1,l,l,-1600,-1200,-1600,-800,=,L,S,0.258688322728169,0.337885390378088,1.96561048647755,1.96212883193765,1.09001411611061,195683.335338919,195683.614276421,195683.614276421,195686.814202848,3.2,195688.81424139,195688.81424139,195691.214221006,2.4,195693.335319099,195693.909248919,0.573929820035119,78,Longer,Middle,66,=,Index
219,Spatial,3421,3,1,14,1600,5,5,2,r,r,0,1200,0,1600,S,=,L,0.407659646596523,0.335983301433015,1.69470197403233,1.45511046553395,1.76948970049034,195695.185409278,195695.604274772,195695.604274772,195698.004113235,2.4,195699.724523612,195699.724523612,195702.924410901,3.2,195704.518718806,195705.013392528,0.494673721725121,77,Longer,Ring,77,L,Ring
219,Spatial,3421,3,1,15,1200,2.5,5,1,r,r,0,800,0,1200,L,S,=,0.302679787409731,0.20262085111884,1.2626060651828,1.52039445507285,1.60812808387071,195706.935475137,195707.254409541,195707.254409541,195710.454253843,3.2,195711.744463712,195711.744463712,195714.144314366,2.4,195715.802178314,195716.293249424,0.491071110562189,66,Longer,Index,77,=,Ring
219,Spatial,3421,3,1,16,1200,2.5,5,1,r,r,0,800,0,1200,L,S,=,0.246871424128464,0.302363819357232,1.05161059867841,1.99741845360119,1.07572069919787,195718.068841342,195718.334914201,195718.334914201,195721.534459837,3.2,195722.614854186,195722.614854186,195725.01470901,2.4,195727.168853896,195727.621350474,0.452496578625869,66,Longer,Index,77,=,Ring
219,Spatial,3421,3,1,17,1200,10,7.5,1,m,m,-800,0,-800,400,S,=,L,0.404700311195008,0.462905375039697,1.14322446338765,1.13392043197838,1.92837778181515,195728.835560342,195729.254898123,195729.254898123,195730.054718493,0.8,195731.225068013,195731.225068013,195732.824889089,1.6,195734.102295519,195734.909320458,0.807024938956602,77,Longer,Ring,78,=,Middle
219,Spatial,3421,3,1,18,1200,10,5,1,l,l,-1600,0,-1600,-400,=,L,S,0.25504459495827,0.48881014437347,1.1789170082129,1.63898296026903,1.10665337091366,195737.002279299,195737.274978734,195737.274978734,195738.874814246,1.6,195740.075053224,195740.075053224,195742.47499274,2.4,195744.252299991,195744.885448607,0.633148615452228,77,Shorter,Ring,66,=,Index
219,Spatial,3421,3,1,19,800,15,5,1,m,m,-800,400,-800,0,L,S,=,0.347268433694018,0.231847031261054,1.08701087531486,1.92138149629903,1.16315041820711,195746.135717278,195746.495139802,195746.495139802,195747.294927451,0.8,195748.405247508,195748.405247508,195750.005057998,1.6,195752.0690706,195752.50937801,0.440307409822708,78,Shorter,Middle,78,S,Middle
219,Spatial,3421,3,1,20,1200,20,7.5,1,l,l,-1600,0,-1600,-400,L,S,=,0.379518411017752,0.485147946484408,1.84415763632897,1.87774242285292,1.14697279871322,195753.819063091,195754.215428871,195754.215428871,195755.014963085,0.8,195756.895182341,195756.895182341,195758.49503678,1.6,195760.51906816,195761.013388999,0.494320839381544,78,Shorter,Middle,78,S,Middle
219,Spatial,3421,3,1,21,800,1.66666666666667,5,1,m,m,-800,-400,-800,0,S,=,L,0.301987937072455,0.493767958833132,1.58226666592867,1.00843042218645,1.50113934688089,195762.319102229,195762.635314306,195762.635314306,195765.035187416,2.4,195766.645282912,195766.645282912,195768.245117462,1.6,195769.385848569,195769.781238591,0.395390022662468,77,Longer,Ring,77,L,Ring
219,Spatial,3421,3,1,22,800,3.75,3.33333333333333,1,r,r,0,1200,0,800,=,L,S,0.427933048889404,0.269891515018186,1.91425658650216,1.40986165967106,1.64943462144477,195771.435863628,195771.875484126,195771.875484126,195775.075323616,3.2,195777.015673707,195777.015673707,195779.415511529,2.4,195780.985861607,195781.453468609,0.467607001948636,77,Shorter,Ring,66,=,Index
219,Spatial,3421,3,1,23,1600,6.66666666666667,5,2,m,m,-800,800,-800,800,L,S,=,0.418430508136825,0.424291601351691,1.18587942506146,1.61604287718965,1.11738365604149,195783.252608282,195783.685461779,195783.685461779,195786.085502668,2.4,195787.305592563,195787.305592563,195790.505514179,3.2,195792.269261122,195792.813371098,0.544109976122854,77,Equals to,Ring,66,L,Index
219,Spatial,3421,3,1,24,800,7.5,3.33333333333333,1,l,l,-1600,-400,-1600,-800,S,=,L,0.443351317521676,0.240494751739564,1.73694866374814,1.34046324600062,1.42768323272271,195794.086003209,195794.545704318,195794.545704318,195796.145574797,1.6,195797.905912531,195797.905912531,195800.305807456,2.4,195801.785982614,195802.229406587,0.44342397278524,66,Shorter,Index,77,L,Ring
219,Spatial,3421,3,1,25,800,2.5,3.33333333333333,1,l,l,-1600,-1200,-1600,-800,=,L,S,0.332379265911858,0.258065842723584,1.29929329361064,1.52041208363062,1.25007151107578,195817.786152639,195818.136001785,195818.136001785,195819.735819974,1.6,195821.066224428,195821.066224428,195823.466110691,2.4,195825.136151965,195826.285386563,1.14923459812417,78,Longer,Middle,78,L,Middle
219,Spatial,3421,3,1,26,800,3.75,3.33333333333333,1,r,r,0,1200,0,800,S,=,L,0.495630291527045,0.421447351433883,1.43269912769179,1.75141801923679,1.59062091196473,195827.686193894,195828.196265754,195828.196265754,195831.396133795,3.2,195832.846481686,195832.846481686,195835.246376289,2.4,195837.152865437,195838.533414111,1.3805486743513,66,Shorter,Index,78,=,Middle
219,Spatial,3421,3,1,27,800,3.75,3.33333333333333,1,l,l,-1600,-400,-1600,-800,L,S,=,0.262372005836194,0.255323846537809,1.16528865230033,1.21631077503586,1.98286346756717,195840.269584967,195840.546480338,195840.546480338,195843.746365061,3.2,195844.94644813,195844.94644813,195847.346286593,2.4,195848.719662833,195849.173445216,0.453782383730868,78,Shorter,Middle,77,=,Ring
219,Spatial,3421,3,1,28,800,5,5,1,r,r,0,400,0,800,S,=,L,0.481937921935836,0.328797844105774,1.66416739588033,1.46376384432159,1.23010007469556,195851.302984166,195851.796647958,195851.796647958,195852.59646512,0.8,195854.296552038,195854.296552038,195855.89637568,1.6,195857.519659077,195858.00539878,0.48573970241705,77,Longer,Ring,78,=,Middle
219,Spatial,3421,3,1,29,1200,20,7.5,1,m,m,-800,800,-800,400,=,L,S,0.271949229776941,0.378294853380784,1.41110026838929,1.79294173852453,1.80774795558452,195859.386373158,195859.6766718,195859.6766718,195860.476621774,0.8,195861.916638872,195861.916638872,195863.516499407,1.6,195865.453036168,195866.149313515,0.696277347597061,77,Shorter,Ring,78,L,Middle
219,Spatial,3421,3,1,30,400,5,5,2,m,m,-800,-400,-800,-400,L,S,=,0.331801287121316,0.292276959471603,1.40888017269457,1.07688242149878,1.55898145462735,195868.103132441,195868.446806787,195868.446806787,195869.246614645,0.8,195870.696967027,195870.696967027,195871.496813382,0.8,195872.736416114,195873.14127293,0.404856816370739,77,Equals to,Ring,77,=,Ring
219,Spatial,3421,3,1,31,1200,3.33333333333333,7.5,1,l,l,-1600,-800,-1600,-400,L,S,=,0.274583560440237,0.454383394184293,1.96806426361225,1.05375832086727,1.14502778698057,195874.853163719,195875.146921249,195875.146921249,195877.546919792,2.4,195879.557245496,195879.557245496,195881.156766622,1.6,195882.353210928,195883.109509346,0.756298418302322,66,Longer,Index,66,L,Index
219,Spatial,3421,3,1,32,400,1.66666666666667,1.25,2,l,l,-1600,-1200,-1600,-1200,L,S,=,0.309504780247482,0.376211345430762,1.36688069032854,1.81369124208115,1.02692469943222,195884.419870999,195884.747064776,195884.747064776,195887.147061715,2.4,195888.547129321,195888.547129321,195891.747099057,3.2,195893.719885178,195894.221452939,0.501567760162288,77,Equals to,Ring,77,=,Ring
219,Spatial,3421,3,1,33,800,1.66666666666667,5,1,m,m,-800,-400,-800,0,=,L,S,0.200491260023471,0.456820869393205,1.44428056775235,1.99617920212541,1.56138874865339,195895.403302065,195895.617184493,195895.617184493,195898.017230515,2.4,195899.497313237,195899.497313237,195901.097195907,1.6,195903.253332206,195903.949335394,0.696003187709721,78,Longer,Middle,78,L,Middle
219,Spatial,3421,3,1,34,400,1.25,1.25,2,r,r,0,400,0,400,L,S,=,0.223824419071527,0.402562869672,1.88649851348212,1.73431281629884,1.8311047143605,195905.67000718,195905.907388542,195905.907388542,195909.10746318,3.2,195911.017552324,195911.017552324,195914.217475864,3.2,195916.103348661,195916.493626624,0.390277962229447,77,Equals to,Ring,77,=,Ring
219,Spatial,3421,3,1,35,400,5,5,2,r,r,0,800,0,400,S,=,L,0.29682848570814,0.257472919401292,1.28787178825673,1.9441395246881,1.34287670990866,195918.48672649,195918.797773652,195918.797773652,195920.397286758,1.6,195921.727467934,195921.727467934,195922.527493938,0.8,195924.620138181,195925.141465091,0.521326909598429,66,Shorter,Index,78,=,Middle
219,Spatial,3421,3,1,36,1600,5,5,2,m,m,-800,800,-800,800,=,L,S,0.227151282425903,0.254897078124077,1.61553017857152,1.30306884419222,1.25214996002247,195926.653445126,195926.897770252,195926.897770252,195930.097580549,3.2,195931.747669809,195931.747669809,195934.947694722,3.2,195936.403051983,195936.877469936,0.474417952616932,66,Equals to,Index,66,=,Index
219,Spatial,3421,3,1,37,400,2.5,1.25,2,m,m,-800,0,-800,-400,=,L,S,0.499193176813501,0.424833866890155,1.44263761960294,1.16044307486813,1.94293554073903,195938.286892088,195938.797902936,195938.797902936,195941.997834816,3.2,195943.477994852,195943.477994852,195946.677909409,3.2,195947.98693782,195948.821463333,0.83452551215305,77,Shorter,Ring,78,L,Middle
219,Spatial,3421,3,1,38,400,5,5,2,m,m,-800,0,-800,-400,L,S,=,0.3812421319435,0.375184386608939,1.31890984437567,1.28659434399675,1.46923159636346,195950.903639372,195951.298266084,195951.298266084,195952.897856823,1.6,195954.258057383,195954.258057383,195955.057903417,0.8,195956.486992756,195957.261298171,0.774305415194249,78,Shorter,Middle,78,S,Middle
219,Spatial,3421,3,1,39,800,5,5,1,r,r,0,1200,0,800,S,=,L,0.490545255063445,0.429975661162847,1.22363623501704,1.303487083825,1.58882009858604,195958.90368236,195959.408260162,195959.408260162,195961.808127818,2.4,195963.058115512,195963.058115512,195964.657974763,1.6,195966.103655669,195966.637481369,0.533825700491434,66,Shorter,Index,78,=,Middle
219,Spatial,3421,3,1,40,800,5,5,1,r,r,0,400,0,800,L,S,=,0.419680719597732,0.283902813886247,1.71631335257704,1.85976589300646,1.02962418501231,195968.370417421,195968.808504164,195968.808504164,195969.608099331,0.8,195971.348426709,195971.348426709,195972.948267675,1.6,195974.953290243,195975.517572901,0.564282657491276,66,Longer,Index,66,L,Index
219,Spatial,3421,3,1,41,400,10,5,2,r,r,0,800,0,400,L,S,=,0.44099971779162,0.452979991182351,1.72819080342707,1.75097398012886,1.75935029430986,195976.720423164,195977.178539189,195977.178539189,195977.978375278,0.8,195979.728484877,195979.728484877,195980.528418811,0.8,195982.420479756,195982.925631643,0.505151887860848,78,Shorter,Middle,77,=,Ring
219,Spatial,3421,3,1,42,1600,7.5,20,2,l,l,-1600,-400,-1600,0,S,=,L,0.357257184817495,0.47800700793181,1.82126350794098,1.61258983798758,1.26040633998601,195984.837176543,195985.208506281,195985.208506281,195986.808492891,1.6,195988.65854744,195988.65854744,195989.458408231,0.8,195991.220495986,195991.989566872,0.769070886366535,77,Longer,Ring,78,=,Middle
219,Spatial,3421,3,1,43,1600,10,20,2,m,m,-800,800,-800,800,S,=,L,0.294444949464083,0.222801036601947,1.1105256065743,1.64948028980313,1.60862132806753,195993.40384244,195993.708684326,195993.708684326,195995.308656179,1.6,195996.448866657,195996.448866657,195997.24867612,0.8,195999.053924615,195999.469554271,0.415629655733937,78,Equals to,Middle,66,S,Index
219,Spatial,3421,3,1,44,800,5,5,1,m,m,-800,-400,-800,0,=,L,S,0.436543094777014,0.303666857797543,1.35945500716606,1.10812672324766,1.49179999862868,196001.220616928,196001.668895234,196001.668895234,196002.468703414,0.8,196003.859013822,196003.859013822,196005.458570878,1.6,196006.703904419,196007.109504855,0.405600435769884,78,Longer,Middle,78,L,Middle
219,Spatial,3421,3,1,45,800,2.5,3.33333333333333,1,m,m,-800,-400,-800,0,L,S,=,0.40500990406196,0.251596435337276,1.11051076318092,1.55743719720911,1.13515138745824,196008.770618436,196009.188706693,196009.188706693,196010.78874046,1.6,196011.929033705,196011.929033705,196014.328703106,2.4,196016.020695607,196017.021485083,1.00078947615111,66,Longer,Index,77,=,Ring
219,Spatial,3421,3,1,46,1600,5,5,2,m,m,-800,800,-800,800,=,L,S,0.367512987197533,0.356031872996204,1.76277510899939,1.82717973375155,1.65434825926052,196018.304055966,196018.689018833,196018.689018833,196021.888900669,3.2,196023.679221214,196023.679221214,196026.879177797,3.2,196028.854050095,196029.373538826,0.519488731166348,66,Equals to,Index,66,=,Index
219,Spatial,3421,3,1,47,1600,3.75,5,2,r,r,0,1200,0,1600,S,=,L,0.447066523325229,0.357427450352625,1.72554834102504,1.1492352086205,1.93767411787729,196031.170788654,196031.629119937,196031.629119937,196034.829028399,3.2,196036.579222048,196036.579222048,196039.779118962,3.2,196041.070845406,196041.429523294,0.35867788825999,77,Longer,Ring,78,=,Middle
219,Spatial,3421,3,1,48,800,1.25,3.33333333333333,1,m,m,-800,-400,-800,0,L,S,=,0.328561914908231,0.301467858170787,1.47088467235996,1.90833175402097,1.32152521260046,196043.520872351,196043.869366429,196043.869366429,196047.069431122,3.2,196048.569415447,196048.569415447,196050.96942586,2.4,196053.020860481,196053.461390498,0.440530016494449,66,Longer,Index,77,=,Ring
219,Spatial,3421,3,1,49,1600,6.66666666666667,5,2,m,m,-800,800,-800,800,L,S,=,0.48166117847136,0.396810378101306,1.77600412840993,1.56098084693928,1.49586581797008,196054.737612064,196055.239576291,196055.239576291,196057.63938492,2.4,196059.44981944,196059.44981944,196062.649472223,3.2,196064.370922043,196064.813578657,0.442656614002772,77,Equals to,Ring,66,L,Index
219,Spatial,3421,3,1,50,800,1.25,3.33333333333333,1,m,m,-800,-400,-800,0,L,S,=,0.348169633172737,0.243942549463954,1.26424577230645,1.81261532389808,1.35987577841258,196066.470966121,196066.829772064,196066.829772064,196070.02967026,3.2,196071.319862164,196071.319862164,196073.719769921,2.4,196075.687660602,196076.66948331,0.981822708039545,66,Longer,Index,77,=,Ring
219,Spatial,3421,3,1,51,1200,5,5,1,l,l,-1600,0,-1600,-400,L,S,=,0.37111792241176,0.413915961732161,1.26330428521716,1.17456134644385,1.49878578313586,196078.187706156,196078.569712189,196078.569712189,196081.769756992,3.2,196083.070190826,196083.070190826,196085.469738963,2.4,196086.787793416,196087.565548222,0.777754806011217,78,Shorter,Middle,78,S,Middle
219,Spatial,3421,3,1,52,1600,7.5,20,2,l,l,-1600,-400,-1600,0,=,L,S,0.346521283202273,0.393721218445364,1.80274909777141,1.95433985611036,1.31286722302644,196089.221117059,196089.580240595,196089.580240595,196091.179820749,1.6,196093.010288722,196093.010288722,196093.810094335,0.8,196095.904451964,196096.845511625,0.941059660864994,78,Longer,Middle,78,L,Middle
219,Spatial,3421,3,1,53,1600,20,20,2,l,l,-1600,0,-1600,0,L,S,=,0.37333316851623,0.486987253630419,1.53682592755863,1.9314906752298,1.40995130573766,196098.321200916,196098.710279996,196098.710279996,196099.51006989,0.8,196101.070116079,196101.070116079,196101.870016329,0.8,196103.95455889,196104.357552934,0.402994044241495,77,Equals to,Ring,77,=,Ring
219,Spatial,3421,3,1,54,1200,20,7.5,1,r,r,0,1600,0,1200,L,S,=,0.498568357276954,0.33475834971042,1.4567565276581,1.62348189427438,1.18384241531051,196105.904576115,196106.420431075,196106.420431075,196107.220300207,0.8,196108.71024567,196108.71024567,196110.310140531,1.6,196112.071228987,196115.053467775,2.98223878844874,78,Shorter,Middle,77,=,Ring
219,Spatial,3421,3,1,55,1200,5,5,1,m,m,-800,800,-800,400,L,S,=,0.224809968046883,0.449915142215766,1.96630579267908,1.66524490954864,1.66395483466723,196116.387972036,196116.630389672,196116.630389672,196119.830543548,3.2,196121.82064428,196121.82064428,196124.220424678,2.4,196126.037883848,196126.461507911,0.423624063492753,78,Shorter,Middle,77,=,Ring
219,Spatial,3421,3,1,56,800,5,5,1,l,l,-1600,-400,-1600,-800,=,L,S,0.37237738587804,0.222049508879911,1.76816278234264,1.45051951760808,1.56086342884127,196128.304700457,196128.69058531,196128.69058531,196131.090409658,2.4,196132.890637537,196132.890637537,196134.490452838,1.6,196136.088036774,196138.637650111,2.54961333714891,77,Shorter,Ring,66,=,Index
219,Spatial,3421,3,1,57,1200,10,5,1,l,l,-1600,0,-1600,-400,S,=,L,0.428251926461044,0.387437812242972,1.08315975948772,1.45126176581022,1.28811324284281,196140.338068277,196140.780932501,196140.780932501,196142.38075871,1.6,196143.490892382,196143.490892382,196145.890688178,2.4,196147.488116526,196148.061727147,0.573610621882835,66,Shorter,Index,78,=,Middle
219,Spatial,3421,3,1,58,800,2.5,3.33333333333333,1,l,l,-1600,-1200,-1600,-800,L,S,=,0.224751883975311,0.335759760599495,1.91668136525042,1.33845247632366,1.86676250424401,196149.504847641,196149.740962156,196149.740962156,196151.340827824,1.6,196153.290960135,196153.290960135,196155.690790578,2.4,196157.171493135,196157.79757095,0.626077815046301,66,Longer,Index,66,L,Index
219,Spatial,3421,3,1,59,1600,20,20,2,r,r,0,1600,0,1600,S,=,L,0.224532175917064,0.242378729681809,1.01064737041119,1.20874605286078,1.25618568876242,196159.821537438,196160.06082212,196160.06082212,196160.860885979,0.8,196161.901238123,196161.901238123,196162.701094744,0.8,196164.054937244,196164.461569505,0.40663226149627,78,Equals to,Middle,78,=,Middle
219,Spatial,3421,3,1,60,1200,5,5,1,r,r,0,1600,0,1200,=,L,S,0.354912152065657,0.376935195289141,1.86009593831224,1.98089259362297,1.30669386269923,196165.871630374,196166.241136673,196166.241136673,196169.441093576,3.2,196171.331311593,196171.331311593,196173.731009866,2.4,196175.854941284,196176.269467077,0.414525793457869,77,Shorter,Ring,77,S,Ring
219,Spatial,3421,3,1,61,1200,10,7.5,1,m,m,-800,0,-800,400,=,L,S,0.481188728436607,0.340159400647135,1.14829662079435,1.19457860850167,1.09723019057359,196177.721702523,196178.221430758,196178.221430758,196179.021252412,0.8,196180.201430989,196180.201430989,196181.801298902,1.6,196183.155051209,196183.605573103,0.450521894526901,78,Longer,Middle,78,L,Middle
219,Spatial,3421,3,1,62,800,7.5,3.33333333333333,1,r,r,0,1200,0,800,L,S,=,0.25771341738716,0.32062602603312,1.88418998926501,1.80121397825067,1.51514860812548,196184.855038487,196185.131577282,196185.131577282,196186.731452252,1.6,196188.651443597,196188.651443597,196191.051358732,2.4,196193.005046218,196193.397558888,0.392512670077849,78,Shorter,Middle,78,S,Middle
219,Spatial,3421,3,1,63,400,3.33333333333333,1.25,2,r,r,0,800,0,400,S,=,L,0.49618856666711,0.40406777399314,1.97031722367877,1.70364251592343,1.24410293592523,196195.071795523,196195.581552997,196195.581552997,196197.981490588,2.4,196199.991884302,196199.991884302,196203.191700373,3.2,196205.038525149,196205.589589136,0.551063986582449,66,Shorter,Index,78,=,Middle
219,Spatial,3421,3,1,64,400,2.5,5,2,m,m,-800,-400,-800,-400,=,L,S,0.254668648530545,0.241770714057727,1.7114053872656,1.29112088424584,1.0143630827091,196206.971871425,196207.241856232,196207.241856232,196208.841715804,1.6,196210.581696395,196210.581696395,196211.381621989,0.8,196212.821830972,196214.069687211,1.24785623958451,66,Equals to,Index,77,S,Ring
219,Spatial,3421,3,1,65,1600,15,20,2,r,r,0,1200,0,1600,=,L,S,0.336273856684297,0.380453317279164,1.31902803155663,1.55483464929359,1.58919125661704,196215.221829086,196215.57186798,196215.57186798,196216.371673593,0.8,196217.721909716,196217.721909716,196218.521726236,0.8,196220.221938813,196220.701562242,0.479623429448111,78,Longer,Middle,77,S,Ring
219,Spatial,3421,3,1,66,1200,3.33333333333333,7.5,1,l,l,-1600,-800,-1600,-400,L,S,=,0.461977172688139,0.422948971466918,1.90789387707898,1.21107931286283,1.46782669532433,196222.438631189,196222.912183572,196222.912183572,196225.311733955,2.4,196227.242032352,196227.242032352,196228.841805308,1.6,196230.205271678,196231.669581796,1.46431011817185,66,Longer,Index,78,S,Middle
219,Spatial,3421,3,1,67,1600,15,20,2,m,m,-800,400,-800,800,S,=,L,0.494786504662942,0.400196486574961,1.62560041439082,1.67615510211438,1.77568942751547,196233.2886565,196233.802184361,196233.802184361,196234.602137223,0.8,196236.262238076,196236.262238076,196237.062200241,0.8,196238.872074365,196239.325614513,0.453540148067987,77,Longer,Ring,77,L,Ring
219,Spatial,3421,3,1,68,1200,5,5,1,l,l,-1600,-800,-1600,-400,L,S,=,0.356584058856295,0.392616320139723,1.32401756370094,1.02427046838431,1.19358073735263,196241.238740646,196241.612092721,196241.612092721,196243.212045646,1.6,196244.562278882,196244.562278882,196246.962182789,2.4,196248.122055277,196248.901611582,0.779556304943981,66,Longer,Index,66,L,Index
219,Spatial,3421,3,1,69,400,5,5,2,r,r,0,400,0,400,=,L,S,0.255356997054469,0.320721408031551,1.13112273744576,1.66486049492108,1.09361202099651,196250.238567734,196250.512600743,196250.512600743,196251.312450948,0.8,196252.472341035,196252.472341035,196253.272359981,0.8,196255.088815781,196255.72557685,0.636761069705244,66,Equals to,Index,66,=,Index
219,Spatial,3421,3,1,70,800,7.5,3.33333333333333,1,m,m,-800,400,-800,0,=,L,S,0.299874570630995,0.271783925586067,1.72978575594839,1.98483689870382,1.61942644488155,196256.955504099,196257.272683715,196257.272683715,196258.872517944,1.6,196260.632595828,196260.632595828,196263.032459956,2.4,196265.172155592,196265.70975168,0.537596088281134,77,Shorter,Ring,77,S,Ring
219,Spatial,3421,3,1,71,800,1.66666666666667,5,1,r,r,0,400,0,800,=,L,S,0.363664102499115,0.456590583891578,1.55222439705135,1.84719255505063,1.62085139297238,196267.488912757,196267.872697317,196267.872697317,196270.272581335,2.4,196271.852720967,196271.852720967,196273.452714634,1.6,196275.455621162,196275.845564557,0.389943395624869,78,Longer,Middle,66,=,Index
219,Spatial,3421,3,1,72,1200,20,7.5,1,r,r,0,1600,0,1200,S,=,L,0.229879665569858,0.348487177465695,1.5616510021063,1.67544064786943,1.8781897071582,196277.622317276,196277.862718766,196277.862718766,196278.662584369,0.8,196280.252796548,196280.252796548,196281.852661574,1.6,196283.672266589,196284.237596024,0.565329434961313,66,Shorter,Index,78,=,Middle
219,Spatial,3421,3,1,73,800,1.66666666666667,5,1,m,m,-800,-400,-800,0,S,=,L,0.381618960940824,0.403388504549224,1.21075162513402,1.31779703417077,1.49222744013079,196285.372336781,196285.772954793,196285.772954793,196288.17268258,2.4,196289.412972104,196289.412972104,196291.012899686,1.6,196292.472339155,196293.493751736,1.02141258172924,77,Longer,Ring,78,=,Middle
219,Spatial,3421,3,1,74,1200,5,5,1,r,r,0,800,0,1200,=,L,S,0.318247071583989,0.400557736474751,1.05947193605936,1.58494754811126,1.01250593046203,196295.139138283,196295.473035892,196295.473035892,196297.072914071,1.6,196298.163191693,196298.163191693,196300.563038497,2.4,196302.289050124,196302.709449484,0.420399360184092,78,Longer,Middle,78,L,Middle
219,Spatial,3421,3,1,75,800,1.25,3.33333333333333,1,m,m,-800,-400,-800,0,=,L,S,0.222194583456753,0.340596980378136,1.21640213173502,1.21663335688036,1.76849740706458,196303.872434946,196304.113203017,196304.113203017,196307.313226006,3.2,196308.553316953,196308.553316953,196310.953155096,2.4,196312.322503985,196313.789585543,1.46708155804663,78,Longer,Middle,78,L,Middle
219,Spatial,3421,3,1,76,1200,10,5,1,l,l,-1600,0,-1600,-400,S,=,L,0.469828476994285,0.278249913332597,1.15713299082925,1.34987151385497,1.41800849647105,196315.705878315,196316.193205622,196316.193205622,196317.79319544,1.6,196318.973425346,196318.973425346,196321.373346576,2.4,196322.872561984,196324.381536103,1.50897411961341,66,Shorter,Index,66,S,Index
219,Spatial,3421,3,1,77,1200,5,5,1,m,m,-800,800,-800,400,L,S,=,0.205526649393124,0.207930227368423,1.22273022318266,1.66174032377873,1.94410650810544,196325.972604458,196326.193627156,196326.193627156,196329.393525994,3.2,196330.643495403,196330.643495403,196333.043355039,2.4,196334.855500442,196335.261650732,0.406150290684309,78,Shorter,Middle,77,=,Ring
219,Spatial,3421,3,1,78,400,2.5,5,2,r,r,0,400,0,400,L,S,=,0.285382928268128,0.209522383024845,1.8430129866254,1.90881102857374,1.24954637286901,196337.355978026,196337.653859558,196337.653859558,196339.253424313,1.6,196341.133774456,196341.133774456,196341.933751698,0.8,196343.989321779,196344.349674354,0.360352574411081,77,Equals to,Ring,78,S,Middle
219,Spatial,3421,3,1,79,800,7.5,3.33333333333333,1,m,m,-800,400,-800,0,=,L,S,0.353951449246134,0.370463106165015,1.30248013993898,1.80091078466634,1.45391188069445,196345.756055622,196346.123891503,196346.123891503,196347.72375268,1.6,196349.053790778,196349.053790778,196351.453765582,2.4,196353.406091731,196354.229505394,0.82341366293258,77,Shorter,Ring,66,=,Index
219,Spatial,3421,3,1,80,400,2.5,1.25,2,m,m,-800,0,-800,-400,=,L,S,0.47890969356834,0.231115166731597,1.75935917158771,1.70678461968199,1.91516531087558,196355.839451993,196356.33396174,196356.33396174,196359.533802513,3.2,196361.334089419,196361.334089419,196364.534005901,3.2,196366.389458954,196367.117655475,0.728196520823985,77,Shorter,Ring,78,L,Middle
219,Spatial,3421,3,1,81,800,2.5,3.33333333333333,1,l,l,-1600,-1200,-1600,-800,S,=,L,0.389087238395602,0.277704624093363,1.15719126167979,1.2586428975618,1.23594754716242,196369.189500081,196369.594095078,196369.594095078,196371.194003412,1.6,196372.374215995,196372.374215995,196374.774108353,2.4,196376.172906928,196376.885798281,0.712891352653969,77,Longer,Ring,78,=,Middle
219,Spatial,3421,3,1,82,1200,2.5,5,1,m,m,-800,0,-800,400,S,=,L,0.398289834543607,0.46521825180426,1.28659983704576,1.82058649352802,1.20171406606803,196378.272916983,196378.684465688,196378.684465688,196381.884080296,3.2,196383.204239291,196383.204239291,196385.604153143,2.4,196387.572916085,196387.957682987,0.384766901930561,77,Longer,Ring,78,=,Middle
219,Spatial,3421,3,1,83,1600,3.75,5,2,l,l,-1600,-400,-1600,0,L,S,=,0.20274925977957,0.496413067233718,1.07601212034973,1.24944338898731,1.89770183731305,196389.306328849,196389.524398884,196389.524398884,196392.724244148,3.2,196393.834617139,196393.834617139,196397.03455704,3.2,196398.439489976,196398.885680226,0.446190249786014,66,Longer,Index,77,=,Ring
219,Spatial,3421,3,1,84,1200,6.66666666666667,7.5,1,l,l,-1600,0,-1600,-400,S,=,L,0.480471493880601,0.413041132873453,1.42546597968559,1.71332866780017,1.02010287543244,196400.939682457,196401.434563372,196401.434563372,196403.834468883,2.4,196405.294511094,196405.294511094,196406.8944961,1.6,196408.756378349,196409.821715162,1.06533681339351,66,Shorter,Index,66,S,Index
219,Spatial,3421,3,1,85,800,15,5,1,m,m,-800,400,-800,0,S,=,L,0.41754589111955,0.212452319773911,1.65610541817173,1.22107112436414,1.77402093192253,196410.989795283,196411.424943478,196411.424943478,196412.224797853,0.8,196413.914636104,196413.914636104,196415.514639717,1.6,196416.873107989,196417.36568559,0.492577600438381,66,Shorter,Index,66,S,Index
219,Spatial,3421,3,1,86,1200,3.33333333333333,7.5,1,m,m,-800,0,-800,400,L,S,=,0.395235282885383,0.372567750988415,1.78381561345978,1.30784077167517,1.80821537749057,196419.289838656,196419.704702209,196419.704702209,196422.104818487,2.4,196423.925129543,196423.925129543,196425.524680504,1.6,196426.973153992,196428.565767972,1.59261397941737,66,Longer,Index,78,S,Middle
219,Spatial,3421,3,1,87,1200,10,7.5,1,l,l,-1600,-800,-1600,-400,L,S,=,0.220922786716852,0.243388742236644,1.53511528518432,1.90839229648634,1.99323894553182,196430.539917413,196430.775104809,196430.775104809,196431.574996397,0.8,196433.145210411,196433.145210411,196434.745004219,1.6,196436.789943384,196437.261716176,0.4717727919342,66,Longer,Index,66,L,Index
219,Spatial,3421,3,1,88,1600,10,20,2,m,m,-800,800,-800,800,=,L,S,0.411315683521314,0.238311767479873,1.32164191740607,1.11716843521487,1.7620824003029,196439.406650421,196439.835310713,196439.835310713,196441.4351443,1.6,196442.795072819,196442.795072819,196443.595106843,0.8,196444.856600152,196445.253721465,0.397121313901152,66,Equals to,Index,77,S,Ring
219,Spatial,3421,3,1,89,800,3.75,3.33333333333333,1,l,l,-1600,-400,-1600,-800,S,=,L,0.370913488637072,0.256832365065992,1.12176325144708,1.73920051988708,1.73274540668306,196447.173306951,196447.555237917,196447.555237917,196450.755157607,3.2,196451.915358872,196451.915358872,196454.315392383,2.4,196456.190066684,196456.621710735,0.431644051568583,66,Shorter,Index,78,=,Middle
219,Spatial,3421,3,1,90,1200,10,7.5,1,l,l,-1600,-800,-1600,-400,=,L,S,0.406757535470998,0.453707561468656,1.55057529993508,1.02205848391446,1.61783401343096,196458.506707332,196458.925272621,196458.925272621,196459.725153623,0.8,196461.305549255,196461.305549255,196462.905482932,1.6,196464.073379644,196464.59786519,0.524485545611242,78,Longer,Middle,78,L,Middle
219,Spatial,3421,3,1,91,1200,6.66666666666667,7.5,1,l,l,-1600,0,-1600,-400,S,=,L,0.492444105896955,0.238828604944127,1.11506253688992,1.15216622250492,1.0676654381575,196466.37342847,196466.885544481,196466.885544481,196469.285438444,2.4,196470.435658912,196470.435658912,196472.035670223,1.6,196473.34016286,196473.957564932,0.617402071511606,66,Shorter,Index,78,=,Middle
219,Spatial,3421,3,1,92,400,3.33333333333333,1.25,2,r,r,0,800,0,400,L,S,=,0.227250415287353,0.405964662993791,1.09234739642552,1.79695430914676,1.52050492591322,196475.173126981,196475.415784255,196475.415784255,196477.815684634,2.4,196478.935491774,196478.935491774,196482.13558983,3.2,196484.090184545,196484.597794613,0.507610068831127,78,Shorter,Middle,66,L,Index
219,Spatial,3421,3,1,93,400,1.66666666666667,1.25,2,l,l,-1600,-1200,-1600,-1200,S,=,L,0.383553999672049,0.229464109288298,1.91267415480164,1.23384499227184,1.73385362615668,196486.273588102,196486.67602025,196486.67602025,196489.07591742,2.4,196491.015940935,196491.015940935,196494.215788766,3.2,196495.590240043,NaN,NaN,78,Equals to,Middle,999,Missed,Missed
219,Spatial,3421,3,1,94,1200,2.5,5,1,l,l,-1600,-800,-1600,-400,L,S,=,0.37229251110504,0.451591522475077,1.91884377608521,1.72329780990357,1.12939812690181,196500.423669297,196500.816012217,196500.816012217,196504.015909452,3.2,196505.955923342,196505.955923342,196508.355903279,2.4,196510.223679947,196510.90173894,0.678058992954902,66,Longer,Index,77,=,Ring
219,Spatial,3421,3,1,95,400,1.25,1.25,2,r,r,0,400,0,400,=,L,S,0.274479542427631,0.259226695977201,1.94615013247551,1.70468088749326,1.64119287008536,196512.190396082,196512.476382179,196512.476382179,196515.676288717,3.2,196517.656281614,196517.656281614,196520.856166979,3.2,196522.707130327,196523.245749532,0.53861920433701,66,Equals to,Index,66,=,Index
219,Spatial,3421,3,1,96,1200,6.66666666666667,7.5,1,r,r,0,1600,0,1200,S,=,L,0.256088601413887,0.324590072175389,1.60757082033535,1.24024792508011,1.36763709718205,196525.040423318,196525.316339115,196525.316339115,196527.716248796,2.4,196529.346401164,196529.346401164,196530.946283513,1.6,196532.323799735,196532.773577836,0.449778101145057,66,Shorter,Index,66,S,Index
