Subject,Task,SequenceOrder,ListNo,RunNo,TrialNo,Aud_Probe_Dist,Aud_Standard_Vel,Aud_Probe_Vel,Main_Control,Aud_Std_StartCode,Aud_Probe_StartCode,Aud_Std_StartPt,Aud_Std_EndPt,Aud_Probe_StartPt,Aud_Probe_EndPt,RespIndex,RespMiddle,RespRing,ISI_Cross_Std,ISI_Cross_Probe,ISI_Std_Probe,ISI_Probe_Response,ITI,TrialOnset,StdOnset,StdOnsetByStop,StdOffset,StdDur,ProbeOnset,ProbeOnsetByStop,ProbeOffset,ProbeDur,RespWinStart,RespTime,RT,CorrectKC,CorrectResponse,CorrectFinger,SubjRespKC,SubjResponse,SubjRespFinger
220,Spatial,4132,4,1,1,400,5,5,2,l,l,-1600,-1200,-1600,-1200,L,S,=,0.368808311434086,0.24780453243555,1.82059789043246,1.67597317890408,1.70583258148685,266385.779353879,266386.159007149,266386.159007149,266386.958112772,0.8,266388.818214845,266388.818214845,266389.618207486,0.8,266391.429407493,266391.951454292,0.522046799887903,77,Equals to,Ring,77,=,Ring
220,Spatial,4132,4,1,2,800,5,5,1,m,m,-800,-400,-800,0,S,=,L,0.36994625402146,0.269847452649959,1.48075689079753,1.00419031905716,1.18235832157121,266393.84613751,266394.228553208,266394.228553208,266395.028513448,0.8,266396.538498781,266396.538498781,266398.138331405,1.6,266399.279424455,266399.711194327,0.431769871967845,77,Longer,Ring,77,L,Ring
220,Spatial,4132,4,1,3,400,5,5,2,m,m,-800,0,-800,-400,S,=,L,0.373757697277876,0.471623253591319,1.02821050037269,1.33003258311169,1.05159862421353,266401.046140654,266401.438515655,266401.438515655,266403.038403458,1.6,266404.088660048,266404.088660048,266404.888511215,0.8,266406.362827563,266406.687416792,0.324589228839614,66,Shorter,Index,66,S,Index
220,Spatial,4132,4,1,4,400,2.5,5,2,r,r,0,400,0,400,S,=,L,0.431189332633744,0.30817075828298,1.88651332116002,1.52534711780283,1.1631033145028,266407.896182647,266408.338679456,266408.338679456,266409.938732151,1.6,266411.848619832,266411.848619832,266412.648479982,0.8,266414.312849795,266414.831373553,0.518523758335505,78,Equals to,Middle,78,=,Middle
220,Spatial,4132,4,1,5,800,15,5,1,r,r,0,1200,0,800,L,S,=,0.311311744309624,0.326685925479487,1.7282885405475,1.66971116486496,1.60405282486321,266416.146220662,266416.468988652,266416.468988652,266417.268807418,0.8,266419.018865047,266419.018865047,266420.618671366,1.6,266422.429559545,266422.895346316,0.465786770510022,78,Shorter,Middle,77,=,Ring
220,Spatial,4132,4,1,6,800,1.25,3.33333333333333,1,m,m,-800,-400,-800,0,S,=,L,0.350081090573237,0.304214375574393,1.28988740583646,1.54627698706028,1.6604675177769,266424.646314657,266425.008875268,266425.008875268,266428.208800412,3.2,266429.538944375,266429.538944375,266431.938889344,2.4,266433.629653155,266435.887202753,2.2575495976489,77,Longer,Ring,77,L,Ring
220,Spatial,4132,4,1,7,1600,7.5,20,2,m,m,-800,400,-800,800,=,L,S,0.477858556806622,0.329272852505419,1.50212849137445,1.79669581201482,1.81438644902794,266437.69641016,266438.18898162,266438.18898162,266439.788847608,1.6,266441.309351081,266441.309351081,266442.108887862,0.8,266444.063023188,266445.143380921,1.08035773289157,78,Longer,Middle,77,S,Ring
220,Spatial,4132,4,1,8,400,3.33333333333333,1.25,2,l,l,-1600,-800,-1600,-1200,S,=,L,0.245843097277722,0.377652893496693,1.30749899987567,1.16335011268484,1.19025764726927,266447.146422446,266447.409033295,266447.409033295,266449.809055578,2.4,266451.149296789,266451.149296789,266454.349177341,3.2,266455.663096459,266456.095377048,0.432280589011498,66,Shorter,Index,77,L,Ring
220,Spatial,4132,4,1,9,1200,5,5,1,m,m,-800,800,-800,400,S,=,L,0.342311878169621,0.378364761517212,1.1476100487216,1.15277969019296,1.84838329388492,266457.42964969,266457.789398791,266457.789398791,266460.989407985,3.2,266462.159542568,266462.159542568,266464.559419849,2.4,266465.863157989,266466.319381968,0.456223978952039,66,Shorter,Index,78,=,Middle
220,Spatial,4132,4,1,10,1200,5,5,1,m,m,-800,0,-800,400,S,=,L,0.451460525798592,0.392542622528823,1.20352611635535,1.90419828823459,1.27918891457511,266468.32991477,266468.799735357,266468.799735357,266470.399543922,1.6,266471.629775336,266471.629775336,266474.02961829,2.4,266476.079906043,266476.455223076,0.375317032739986,77,Longer,Ring,77,L,Ring
220,Spatial,4132,4,1,11,1200,20,7.5,1,l,l,-1600,0,-1600,-400,L,S,=,0.301556581241689,0.359038478237347,1.3403296122328,1.5779477482142,1.53319890642139,266477.896596482,266478.209645129,266478.209645129,266479.009476085,0.8,266480.389778749,266480.389778749,266481.989465409,1.6,266483.713267672,266484.671459451,0.958191779383924,78,Shorter,Middle,66,L,Index
220,Spatial,4132,4,1,12,1200,5,5,1,l,l,-1600,-800,-1600,-400,L,S,=,0.315562020060009,0.336941432044599,1.30168617185738,1.68135171120494,1.7195074161664,266486.379938509,266486.709774733,266486.709774733,266488.309665743,1.6,266489.649619516,266489.649619516,266492.049585338,2.4,266493.879994007,266494.311430245,0.431436237704474,66,Longer,Index,66,L,Index
220,Spatial,4132,4,1,13,1200,2.5,5,1,l,l,-1600,-800,-1600,-400,L,S,=,0.283951036822592,0.290600195696265,1.48550468727643,1.46565753084497,1.45260669202453,266496.180090954,266496.479952066,266496.479952066,266499.679843205,3.2,266501.200078167,266501.200078167,266503.599966033,2.4,266505.213417486,266505.927404075,0.71398658916587,66,Longer,Index,77,=,Ring
220,Spatial,4132,4,1,14,800,1.66666666666667,5,1,m,m,-800,-400,-800,0,=,L,S,0.422954072115504,0.295645667875064,1.69011999616173,1.21502291700904,1.60637026413418,266507.530153478,266507.97034757,266507.97034757,266510.369878063,2.4,266512.090329823,266512.090329823,266513.690252914,1.6,266515.063497013,266515.58340407,0.519907057227101,78,Longer,Middle,66,=,Index
220,Spatial,4132,4,1,15,400,1.25,1.25,2,r,r,0,400,0,400,=,L,S,0.25368882108836,0.484614617061679,1.8067732267314,1.71947616437839,1.53916578857492,266517.330186865,266517.600160805,266517.600160805,266520.800070872,3.2,266522.640345767,266522.640345767,266525.840238831,3.2,266527.713595276,266528.471278583,0.757683306350373,66,Equals to,Index,77,S,Ring
220,Spatial,4132,4,1,16,1600,6.66666666666667,5,2,m,m,-800,800,-800,800,L,S,=,0.297502832844632,0.408721685170199,1.15627417850003,1.23461953836717,1.9536310155611,266530.163623537,266530.480453159,266530.480453159,266532.880279752,2.4,266534.070376891,266534.070376891,266537.27034406,3.2,266538.646960752,266539.167440762,0.520480009843595,77,Equals to,Ring,77,=,Ring
220,Spatial,4132,4,1,17,1600,5,5,2,l,l,-1600,-400,-1600,0,=,L,S,0.438192696058936,0.201254976828654,1.38637890401713,1.34850999250244,1.59722602004227,266541.313651479,266541.770790983,266541.770790983,266544.170683341,2.4,266545.580556265,266545.580556265,266548.780447724,3.2,266550.280245388,266550.783485811,0.503240422636736,78,Longer,Middle,78,L,Middle
220,Spatial,4132,4,1,18,1600,5,5,2,m,m,-800,400,-800,800,S,=,L,0.415304032821422,0.274682297976209,1.87288372902464,1.13740649372386,1.71548853438231,266552.530389268,266552.960569199,266552.960569199,266555.360619392,2.4,266557.270918341,266557.270918341,266560.470805631,3.2,266561.747077332,266562.159359114,0.412281782366335,77,Longer,Ring,77,L,Ring
220,Spatial,4132,4,1,19,1200,5,5,1,m,m,-800,0,-800,400,=,L,S,0.274017028000997,0.203491103730193,1.76247248563031,1.29818856447296,1.57195804977577,266564.047133536,266564.340998856,266564.340998856,266565.940997977,1.6,266567.740981725,266567.740981725,266570.140974174,2.4,266571.59719656,266572.095346572,0.49815001222305,78,Longer,Middle,66,=,Index
220,Spatial,4132,4,1,20,1600,15,20,2,r,r,0,1200,0,1600,L,S,=,0.422877027189708,0.321447609130655,1.60665612924808,1.42143391601916,1.38800326546509,266573.847239465,266574.281118887,266574.281118887,266575.080985774,0.8,266576.721207801,266576.721207801,266577.521038116,0.8,266579.080515568,266579.5033033,0.422787732270081,66,Longer,Index,77,=,Ring
220,Spatial,4132,4,1,21,800,7.5,3.33333333333333,1,l,l,-1600,-400,-1600,-800,S,=,L,0.423742871557707,0.411916876111164,1.64582136602948,1.40666873654703,1.06696471681572,266581.047238439,266581.491367169,266581.491367169,266583.090933528,1.6,266584.771027735,266584.771027735,266587.171119632,2.4,266588.713933336,266589.215405176,0.501471840310842,66,Shorter,Index,77,L,Ring
220,Spatial,4132,4,1,22,1600,15,20,2,m,m,-800,400,-800,800,L,S,=,0.47498973919663,0.207061238681638,1.6727341629325,1.15748941762232,1.56545148204807,266590.430641611,266590.921286012,266590.921286012,266591.721120819,0.8,266593.421313601,266593.421313601,266594.221158032,0.8,266595.513963556,266595.943271913,0.429308357008267,66,Longer,Index,77,=,Ring
220,Spatial,4132,4,1,23,1200,10,7.5,1,r,r,0,800,0,1200,=,L,S,0.303675776804239,0.339202988511978,1.58804500560449,1.13348011690208,1.49763140832946,266597.663988931,266597.981408828,266597.981408828,266598.781250371,0.8,266600.401440228,266600.401440228,266602.001339259,1.6,266603.280733073,266604.80748887,1.52675579674542,78,Longer,Middle,78,L,Middle
220,Spatial,4132,4,1,24,800,15,5,1,m,m,-800,400,-800,0,=,L,S,0.266030505359849,0.225172688418171,1.0843222644974,1.12379058956041,1.37259676622495,266606.480719469,266606.76165967,266606.76165967,266607.561516291,0.8,266608.681500834,266608.681500834,266610.281333459,1.6,266611.5473751,266612.119439456,0.572064355481416,77,Shorter,Ring,77,S,Ring
220,Spatial,4132,4,1,25,800,2.5,3.33333333333333,1,l,l,-1600,-1200,-1600,-800,S,=,L,0.468743353244584,0.267684180736225,1.0750050808699,1.83300965299502,1.06116615513197,266613.947422451,266614.431815381,266614.431815381,266616.031659234,1.6,266617.141594008,266617.141594008,266619.541479629,2.4,266621.530767493,266622.023507741,0.492740247165784,77,Longer,Ring,77,L,Ring
220,Spatial,4132,4,1,26,1200,10,5,1,r,r,0,1600,0,1200,S,=,L,0.258776259246722,0.370841894510545,1.44302127580158,1.55716185169598,1.9078302690067,266623.230839931,266623.501877931,266623.501877931,266625.101709914,1.6,266626.571885303,266626.571885303,266628.971798834,2.4,266630.664160239,266630.951586463,0.287426223512739,66,Shorter,Index,78,=,Middle
220,Spatial,4132,4,1,27,400,5,5,2,l,l,-1600,-800,-1600,-1200,L,S,=,0.401667840496289,0.467982726998673,1.83359178713849,1.10485430106312,1.48964378999059,266632.997593984,266633.411775512,266633.411775512,266635.011770141,1.6,266636.881942194,266636.881942194,266637.681779887,0.8,266638.930944739,266639.391458835,0.460514096484985,78,Shorter,Middle,78,S,Middle
220,Spatial,4132,4,1,28,800,5,5,1,l,l,-1600,-400,-1600,-800,L,S,=,0.465700927140782,0.388306814526263,1.75170898617613,1.66042521593668,1.77157202223537,266641.030925007,266641.512269996,266641.512269996,266643.91185695,2.4,266645.702084463,266645.702084463,266647.302154161,1.6,266649.114272616,266649.935488611,0.821215994190425,78,Shorter,Middle,78,S,Middle
220,Spatial,4132,4,1,29,400,5,5,2,r,r,0,400,0,400,L,S,=,0.244596172717881,0.428198602683646,1.09054302375818,1.70031362638744,1.74928895012783,266651.847710034,266652.112378556,266652.112378556,266652.912167166,0.8,266654.032149464,266654.032149464,266654.832014747,0.8,266656.681054982,266657.055510322,0.374455340439454,77,Equals to,Ring,77,=,Ring
220,Spatial,4132,4,1,30,1200,6.66666666666667,7.5,1,r,r,0,1600,0,1200,L,S,=,0.229721756684242,0.299202209065679,1.19595442295812,1.31723144874536,1.20859254805971,266658.964420795,266659.212389591,266659.212389591,266661.612239603,2.4,266662.842573032,266662.842573032,266664.442424263,1.6,266665.91437245,266666.303451575,0.389079124550335,78,Shorter,Middle,78,S,Middle
220,Spatial,4132,4,1,31,1200,3.33333333333333,7.5,1,m,m,-800,0,-800,400,S,=,L,0.387943240712278,0.353941737845749,1.04219105604711,1.26546797061248,1.44790192595647,266667.664463029,266668.07241591,266668.07241591,266670.472336498,2.4,266671.542678833,266671.542678833,266673.142533272,1.6,266674.564491197,266674.999501473,0.435010276851244,77,Longer,Ring,78,=,Middle
220,Spatial,4132,4,1,32,800,5,5,1,l,l,-1600,-400,-1600,-800,=,L,S,0.442817143201667,0.238289713102203,1.97008844167436,1.24418001772897,1.77891339682328,266676.59780905,266677.052504682,266677.052504682,266679.452491035,2.4,266681.452708584,266681.452708584,266683.052548908,1.6,266684.447819283,266685.079471677,0.631652394193225,77,Shorter,Ring,77,S,Ring
220,Spatial,4132,4,1,33,400,1.25,1.25,2,r,r,0,400,0,400,L,S,=,0.268123189152897,0.377860961968607,1.48163900054648,1.63227132972903,1.4746770155897,266687.014532979,266687.302776241,266687.302776241,266690.502680854,3.2,266692.012557435,266692.012557435,266695.212614749,3.2,266696.997903879,266697.375330506,0.377426627732348,77,Equals to,Ring,66,L,Index
220,Spatial,4132,4,1,34,800,15,5,1,m,m,-800,400,-800,0,=,L,S,0.212074048720548,0.493700390769675,1.86083704312143,1.22041560610377,1.95497944580807,266698.997992099,266699.222852233,266699.222852233,266700.022754087,0.8,266701.903173202,266701.903173202,266703.502682779,1.6,266704.864617318,266705.671507892,0.806890573760029,77,Shorter,Ring,66,=,Index
220,Spatial,4132,4,1,35,800,7.5,3.33333333333333,1,l,l,-1600,-400,-1600,-800,L,S,=,0.429850814730708,0.226613379521898,1.35981654582764,1.04396569576929,1.9141744933849,266707.781373328,266708.223190037,266708.223190037,266709.823020096,1.6,266711.203115522,266711.203115522,266713.602993443,2.4,266714.798065597,266715.703526193,0.905460596317425,78,Shorter,Middle,66,L,Index
220,Spatial,4132,4,1,36,800,5,5,1,l,l,-1600,-1200,-1600,-800,L,S,=,0.388387123431324,0.239308113732152,1.47893700469777,1.45489041917887,1.48984148142398,266717.781385198,266718.183201407,266718.183201407,266718.983002529,0.8,266720.493412924,266720.493412924,266722.092956186,1.6,266723.698065178,266724.13563002,0.437564842170104,66,Longer,Index,66,L,Index
220,Spatial,4132,4,1,37,800,2.5,3.33333333333333,1,m,m,-800,-400,-800,0,=,L,S,0.396106605027373,0.34281435837555,1.66553093085181,1.1185308862861,1.64884730341127,266725.764819616,266726.173319417,266726.173319417,266727.773293515,1.6,266729.463454494,266729.463454494,266731.863383744,2.4,266733.131520931,266733.575541851,0.444020919851027,78,Longer,Middle,78,L,Middle
220,Spatial,4132,4,1,38,1200,20,7.5,1,m,m,-800,800,-800,400,=,L,S,0.382256218572471,0.439865269886411,1.70935861126478,1.20279660248586,1.03839100520777,266735.381514289,266735.783229124,266735.783229124,266736.583194176,0.8,266738.323622928,266738.323622928,266739.923525808,1.6,266741.264834052,266741.607502408,0.342668355384376,77,Shorter,Ring,78,L,Middle
220,Spatial,4132,4,1,39,800,7.5,3.33333333333333,1,m,m,-800,400,-800,0,=,L,S,0.208724875141061,0.366664911634009,1.47130943900532,1.17218542448538,1.67446121858528,266742.798257146,266743.023736107,266743.023736107,266744.623297975,1.6,266746.113790727,266746.113790727,266748.513370623,2.4,266749.831622882,266750.46336696,0.631744077894837,77,Shorter,Ring,77,S,Ring
220,Spatial,4132,4,1,40,1600,10,20,2,r,r,0,1600,0,1600,L,S,=,0.493502667913174,0.313287056057699,1.93565189404276,1.69885780334706,1.10487666209321,266752.281615534,266752.793903495,266752.793903495,266754.39342045,1.6,266756.363864672,266756.363864672,266757.16372033,0.8,266759.014959005,266761.031670872,2.01671186764725,77,Equals to,Ring,78,S,Middle
220,Spatial,4132,4,1,41,800,2.5,3.33333333333333,1,r,r,0,400,0,800,L,S,=,0.269822007182829,0.49537257375682,1.67814491569483,1.58021126026168,1.66751731819516,266762.281706,266762.563866532,266762.563866532,266764.163827157,1.6,266765.873903854,266765.873903854,266768.273827972,2.4,266769.998353002,266770.687537734,0.689184732618742,66,Longer,Index,66,L,Index
220,Spatial,4132,4,1,42,1200,6.66666666666667,7.5,1,r,r,0,1600,0,1200,L,S,=,0.228345672794278,0.428726139276857,1.53006450553948,1.35514392425892,1.07162515116276,266772.515102082,266772.754092909,266772.754092909,266775.153989117,2.4,266776.713961843,266776.713961843,266778.313832643,1.6,266779.815066538,266780.175601648,0.360535110812634,78,Shorter,Middle,77,=,Ring
220,Spatial,4132,4,1,43,800,3.75,3.33333333333333,1,l,l,-1600,-400,-1600,-800,S,=,L,0.222202738832704,0.354556576810816,1.74108722828223,1.29692881933405,1.17432569991118,266781.398496593,266781.633967258,266781.633967258,266784.83401976,3.2,266786.604301078,266786.604301078,266789.003894448,2.4,266790.448537256,266790.83157245,0.383035194186959,66,Shorter,Index,78,=,Middle
220,Spatial,4132,4,1,44,800,7.5,3.33333333333333,1,l,l,-1600,-400,-1600,-800,S,=,L,0.421911999437801,0.339502179874302,1.20340397560688,1.02186100771772,1.58927839025082,266792.148556743,266792.584220788,266792.584220788,266794.184073623,1.6,266795.414290921,266795.414290921,266797.814177505,2.4,266798.981479129,266799.415590215,0.434111086069606,66,Shorter,Index,77,L,Ring
220,Spatial,4132,4,1,45,800,1.66666666666667,5,1,l,l,-1600,-1200,-1600,-800,=,L,S,0.37735903497661,0.297136083574096,1.81696712391457,1.58068613584905,1.4280069637981,266801.148613204,266801.544588568,266801.544588568,266803.944160124,2.4,266805.794380849,266805.794380849,266807.394272501,1.6,266809.131985084,266809.575674663,0.443689579260536,78,Longer,Middle,77,S,Ring
220,Spatial,4132,4,1,46,1200,2.5,5,1,l,l,-1600,-800,-1600,-400,L,S,=,0.264460999863867,0.320145285964824,1.7711781189003,1.74277078964061,1.65067674344079,266811.16530422,266811.444506314,266811.444506314,266814.644605975,3.2,266816.45475466,266816.45475466,266818.854601785,2.4,266820.73199129,266821.127570187,0.395578897092491,66,Longer,Index,77,=,Ring
220,Spatial,4132,4,1,47,800,5,5,1,r,r,0,1200,0,800,=,L,S,0.463985986589789,0.383491893235267,1.17186065214386,1.00293788340151,1.78373662197953,266822.93207688,266823.414659523,266823.414659523,266825.814563109,2.4,266827.014858869,266827.014858869,266828.614789339,1.6,266829.765429224,266830.135546612,0.370117387908977,77,Shorter,Ring,66,=,Index
220,Spatial,4132,4,1,48,800,5,5,1,l,l,-1600,-1200,-1600,-800,S,=,L,0.242934921115416,0.415527282575906,1.96292345576616,1.91984565070664,1.61780305690652,266832.065435941,266832.324844222,266832.324844222,266833.124689935,0.8,266835.114662346,266835.114662346,266836.714628104,1.6,266838.782097379,266839.687664451,0.905567072331905,77,Longer,Ring,77,L,Ring
220,Spatial,4132,4,1,49,1200,20,7.5,1,l,l,-1600,0,-1600,-400,=,L,S,0.242417931500718,0.343007143142024,1.52785769172993,1.05410465015864,1.80394017051996,266841.198849218,266841.454892284,266841.454892284,266842.254900965,0.8,266843.805071581,266843.805071581,266845.404907413,1.6,266846.598827276,266847.383552666,0.78472539014183,77,Shorter,Ring,78,L,Middle
220,Spatial,4132,4,1,50,800,1.66666666666667,5,1,r,r,0,400,0,800,=,L,S,0.492589858966156,0.232596381419068,1.34813365934394,1.53378651956486,1.54045052084778,266849.348902825,266849.855015344,266849.855015344,266852.254841938,2.4,266853.624848777,266853.624848777,266855.224950555,1.6,266856.898886688,266857.223579857,0.324693168804515,78,Longer,Middle,77,S,Ring
220,Spatial,4132,4,1,51,400,1.66666666666667,1.25,2,r,r,0,400,0,400,=,L,S,0.385622898241398,0.38032403343267,1.2016246855922,1.55899612437618,1.99953940533918,266858.915629032,266859.315395315,266859.315395315,266861.715222229,2.4,266862.945094024,266862.945094024,266866.145132732,3.2,266867.848937471,266868.167605655,0.318668183404952,66,Equals to,Index,78,L,Middle
220,Spatial,4132,4,1,52,1200,10,5,1,r,r,0,1600,0,1200,S,=,L,0.262757363493321,0.389245910641044,1.19052732272608,1.10027572961843,1.66099332905025,266870.315658418,266870.595496021,266870.595496021,266872.195407242,1.6,266873.425435268,266873.425435268,266875.825443114,2.4,266877.081930947,266877.471631144,0.389700197556522,66,Shorter,Index,78,=,Middle
220,Spatial,4132,4,1,53,1200,5,5,1,l,l,-1600,-800,-1600,-400,S,=,L,0.341968743771579,0.423357351490416,1.49957099686358,1.3981480757232,1.27757116742827,266879.282418181,266879.635531489,266879.635531489,266881.235407743,1.6,266882.765348253,266882.765348253,266885.165382406,2.4,266886.71578759,266887.143579498,0.427791907393839,77,Longer,Ring,77,L,Ring
220,Spatial,4132,4,1,54,1200,3.33333333333333,7.5,1,r,r,0,800,0,1200,L,S,=,0.211684862340343,0.317835787006425,1.94471411632443,1.65770542221592,1.55886340058848,266888.59910509,266888.825613826,266888.825613826,266891.225606595,2.4,266893.205828866,266893.205828866,266894.805649621,1.6,266896.599117281,266897.039579929,0.440462647995446,66,Longer,Index,77,=,Ring
220,Spatial,4132,4,1,55,800,5,5,1,m,m,-800,400,-800,0,L,S,=,0.48274870289137,0.349594682526956,1.32050859939511,1.90944218219465,1.97353304090593,266898.749197513,266899.245689176,266899.245689176,266901.645572231,2.4,266903.00593287,266903.00593287,266904.605665084,1.6,266906.649247031,266907.151719532,0.502472500491422,78,Shorter,Middle,77,=,Ring
220,Spatial,4132,4,1,56,1200,20,7.5,1,l,l,-1600,0,-1600,-400,=,L,S,0.220658200782163,0.284986711034321,1.5396912529197,1.14234370295508,1.82472385721311,266909.265927667,266909.505886996,266909.505886996,266910.305782754,0.8,266911.865882838,266911.865882838,266913.465896395,1.6,266914.749225423,266915.159441881,0.410216458025388,77,Shorter,Ring,77,S,Ring
220,Spatial,4132,4,1,57,1600,20,20,2,r,r,0,1600,0,1600,=,L,S,0.317030615344879,0.494352088064498,1.76116936655685,1.07696277191345,1.22045277215264,266917.132653939,266917.466108811,266917.466108811,266918.266019968,0.8,266920.056131351,266920.056131351,266920.856124954,0.8,266922.082599819,266922.503475571,0.420875751413405,66,Equals to,Index,66,=,Index
220,Spatial,4132,4,1,58,1600,7.5,20,2,r,r,0,1200,0,1600,L,S,=,0.200658397221535,0.356124936913622,1.35783978619928,1.75348237500279,1.29010721110112,266923.882676234,266924.096317916,266924.096317916,266925.696185829,1.6,266927.086272317,266927.086272317,266927.88610167,0.8,266929.782311033,266930.175636295,0.393325261946302,66,Longer,Index,78,S,Middle
220,Spatial,4132,4,1,59,1200,5,5,1,r,r,0,1600,0,1200,=,L,S,0.392401182348568,0.381412572886053,1.87670223978616,1.88799301230349,1.24128852213056,266931.632695643,266932.036072233,266932.036072233,266935.23608239,3.2,266937.13637584,266937.13637584,266939.536419938,2.4,266941.566127111,266941.919456202,0.353329091041815,77,Shorter,Ring,66,=,Index
220,Spatial,4132,4,1,60,1200,2.5,5,1,m,m,-800,0,-800,400,L,S,=,0.410220804973681,0.422066719120609,1.04430391087531,1.4826062731806,1.72356062381962,266943.332818446,266943.756449522,266943.756449522,266946.956362476,3.2,266948.026563015,266948.026563015,266950.426535253,2.4,266952.066119571,266952.679518964,0.613399392866995,66,Longer,Index,77,=,Ring
220,Spatial,4132,4,1,61,400,10,5,2,l,l,-1600,-800,-1600,-1200,S,=,L,0.389451775261152,0.27697854954314,1.14726504755864,1.34088255274348,1.30733110122714,266954.566212924,266954.966710636,266954.966710636,266955.766554424,0.8,266956.946828922,266956.946828922,266957.746375969,0.8,266959.232833074,266960.15966933,0.926836255530361,66,Shorter,Index,78,=,Middle
220,Spatial,4132,4,1,62,1600,3.75,5,2,m,m,-800,400,-800,800,L,S,=,0.415343346238619,0.310495706875465,1.08348439908356,1.81338026134511,1.65812463333574,266961.649384734,266962.076665255,266962.076665255,266965.276566981,3.2,266966.396770311,266966.396770311,266969.596688719,3.2,266971.56623923,266971.943523742,0.377284512389451,66,Longer,Index,66,L,Index
220,Spatial,4132,4,1,63,1600,3.75,5,2,l,l,-1600,-400,-1600,0,S,=,L,0.294006271012465,0.35325190047115,1.96654766572773,1.72568506825251,1.33873768505267,266973.799671563,266974.106968227,266974.106968227,266977.30687284,3.2,266979.297056018,266979.297056018,266982.496726124,3.2,266984.366387426,266984.783609961,0.417222534713801,77,Longer,Ring,77,L,Ring
220,Spatial,4132,4,1,64,800,1.25,3.33333333333333,1,m,m,-800,-400,-800,0,=,L,S,0.367374521976623,0.231939244780461,1.46920117583422,1.09430935579574,1.65089620554884,266986.266404058,266986.647116617,266986.647116617,266989.847103035,3.2,266991.347054638,266991.347054638,266993.747074676,2.4,266994.999722506,266996.199886051,1.20016354491236,78,Longer,Middle,77,S,Ring
220,Spatial,4132,4,1,65,400,2.5,1.25,2,r,r,0,800,0,400,=,L,S,0.379066721727651,0.336979558744836,1.56343757654253,1.10701977334939,1.40479968766919,266997.999801744,266998.397351284,266998.397351284,267001.597012087,3.2,267003.197254787,267003.197254787,267006.397163891,3.2,267007.649862746,267008.175725799,0.525863052345812,77,Shorter,Ring,78,L,Middle
220,Spatial,4132,4,1,66,800,1.66666666666667,5,1,m,m,-800,-400,-800,0,L,S,=,0.445459270930764,0.46781605517781,1.08684109920951,1.72981003870406,1.60861189356507,267009.733217716,267010.19758393,267010.19758393,267012.597480779,2.4,267013.717530446,267013.717530446,267015.317440705,1.6,267017.19988156,267017.607618538,0.407736978202593,66,Longer,Index,78,S,Middle
220,Spatial,4132,4,1,67,1200,6.66666666666667,7.5,1,r,r,0,1600,0,1200,L,S,=,0.44391400282523,0.464260345821606,1.07408595612225,1.05314218696722,1.22159580954742,267019.366622973,267019.827467421,267019.827467421,267022.22747206,2.4,267023.337708709,267023.337708709,267024.937353985,1.6,267026.133309997,267027.351497152,1.2181871549692,78,Shorter,Middle,66,L,Index
220,Spatial,4132,4,1,68,1200,5,5,1,m,m,-800,800,-800,400,L,S,=,0.358150188576658,0.223199103542747,1.29935119673376,1.81061011496712,1.97355390811891,267028.716670372,267029.087834945,267029.087834945,267032.287676039,3.2,267033.617621425,267033.617621425,267036.017635367,2.4,267037.983317325,267038.271567048,0.28824972268194,78,Shorter,Middle,77,=,Ring
220,Spatial,4132,4,1,69,1200,6.66666666666667,7.5,1,m,m,-800,800,-800,400,S,=,L,0.330575634730124,0.470285412633489,1.82611576458555,1.52179863058122,1.00792834350709,267040.400061145,267040.748034561,267040.748034561,267043.147896122,2.4,267045.007798335,267045.007798335,267046.607700574,1.6,267048.266708499,267048.631538189,0.364829689322505,66,Shorter,Index,66,S,Index
220,Spatial,4132,4,1,70,1200,10,7.5,1,r,r,0,800,0,1200,L,S,=,0.387731267618468,0.206887350217493,1.85261459613255,1.1307888416257,1.37485400080554,267049.783468391,267050.18792201,267050.18792201,267050.987772536,0.8,267052.867978959,267052.867978959,267054.467815754,1.6,267055.750114045,267057.07171404,1.32159999437863,66,Longer,Index,77,=,Ring
220,Spatial,4132,4,1,71,800,3.75,3.33333333333333,1,m,m,-800,400,-800,0,L,S,=,0.474430924535148,0.473429792494999,1.14007100990542,1.71859073594281,1.77564750604144,267058.583514426,267059.077977978,267059.077977978,267062.278085979,3.2,267063.458223815,267063.458223815,267065.858107832,2.4,267067.716888214,267068.151722419,0.434834204497747,78,Shorter,Middle,78,S,Middle
220,Spatial,4132,4,1,72,1600,6.66666666666667,5,2,l,l,-1600,0,-1600,0,=,L,S,0.214652976524812,0.498925867435118,1.30868184528194,1.28367534367788,1.71077668868983,267070.083586286,267070.318297612,267070.318297612,267072.718046572,2.4,267074.058202128,267074.058202128,267077.258257839,3.2,267078.683558504,267079.03154608,0.347987575980369,66,Equals to,Index,78,L,Middle
220,Spatial,4132,4,1,73,1600,5,5,2,r,r,0,1600,0,1600,S,=,L,0.29216998232842,0.408021457589624,1.24339175150112,1.96834587384653,1.1920359919795,267082.650330458,267082.958665238,267082.958665238,267086.158262523,3.2,267087.428719319,267087.428719319,267090.628334248,3.2,267092.750313263,267093.199741049,0.449427785177249,78,Equals to,Middle,77,L,Ring
220,Spatial,4132,4,1,74,400,3.33333333333333,1.25,2,r,r,0,800,0,400,S,=,L,0.418317311510072,0.396552508354757,1.83184603670327,1.4498573399704,1.15823926070639,267094.550355032,267094.988539298,267094.988539298,267097.388589491,2.4,267099.248910351,267099.248910351,267102.448479725,3.2,267104.050385508,267104.655531624,0.605146115762182,66,Shorter,Index,77,L,Ring
220,Spatial,4132,4,1,75,800,3.75,3.33333333333333,1,m,m,-800,400,-800,0,=,L,S,0.32281716199683,0.470967128186158,1.74063179582321,1.69922687162615,1.73997434650681,267105.967142882,267106.308783903,267106.308783903,267109.508872015,3.2,267111.268931934,267111.268931934,267113.668812102,2.4,267115.517190522,267116.335535961,0.818345438747201,77,Shorter,Ring,77,S,Ring
220,Spatial,4132,4,1,76,400,2.5,1.25,2,r,r,0,800,0,400,L,S,=,0.36596350660661,0.27598555514713,1.90778651910301,1.93707920156035,1.60471830151702,267118.217215844,267118.599077777,267118.599077777,267121.798943894,3.2,267123.739227579,267123.739227579,267126.938875871,3.2,267129.017206224,267130.079873001,1.06266677705571,78,Shorter,Middle,77,=,Ring
220,Spatial,4132,4,1,77,1600,20,20,2,m,m,-800,800,-800,800,L,S,=,0.255154020549423,0.206867156801953,1.78226833553231,1.75981384934549,1.71663805983594,267131.83396788,267132.109072689,267132.109072689,267132.90900919,0.8,267134.7194158,267134.7194158,267135.518954185,0.8,267137.417255499,267137.799803092,0.382547592569608,77,Equals to,Ring,77,=,Ring
220,Spatial,4132,4,1,78,800,5,5,1,l,l,-1600,-1200,-1600,-800,=,L,S,0.427076033522787,0.233944392913829,1.7124288766563,1.50811353254936,1.7473199187646,267139.667301213,267140.109209351,267140.109209351,267140.909028438,0.8,267142.649292298,267142.649292298,267144.249148662,1.6,267145.900663291,267146.271720712,0.371057421667501,78,Longer,Middle,78,L,Middle
220,Spatial,4132,4,1,79,800,1.25,3.33333333333333,1,m,m,-800,-400,-800,0,=,L,S,0.348230415049545,0.232666602209957,1.49225840617754,1.48556933211255,1.81194856339663,267148.167400983,267148.529406606,267148.529406606,267151.72929999,3.2,267153.259475649,267153.259475649,267155.659336568,2.4,267157.284099106,267159.295778308,2.01167920167791,78,Longer,Middle,78,L,Middle
220,Spatial,4132,4,1,80,800,1.25,3.33333333333333,1,m,m,-800,-400,-800,0,S,=,L,0.272377127299706,0.383163687514767,1.81978238809888,1.5583774487491,1.23602901673551,267161.284098222,267161.569375668,267161.569375668,267164.769423358,3.2,267166.619803842,267166.619803842,267169.0196962,2.4,267170.717460877,267171.191710729,0.474249852297362,77,Longer,Ring,77,L,Ring
220,Spatial,4132,4,1,81,1600,5,5,2,l,l,-1600,0,-1600,0,S,=,L,0.275245659371913,0.241739411778773,1.37145310474906,1.8669887757832,1.98500569785319,267172.584204151,267172.869730539,267172.869730539,267176.06975449,3.2,267177.469989234,267177.469989234,267180.669904112,3.2,267182.684258641,267183.015747216,0.331488574389368,78,Equals to,Middle,78,=,Middle
220,Spatial,4132,4,1,82,1200,3.33333333333333,7.5,1,l,l,-1600,-800,-1600,-400,S,=,L,0.386049775287282,0.409080456369334,1.56772921713067,1.10761193462293,1.51761446045219,267185.150956664,267185.549745142,267185.549745142,267187.949782823,2.4,267189.549995368,267189.549995368,267191.150006358,1.6,267192.400934689,267192.91161291,0.510678220714908,77,Longer,Ring,66,S,Index
220,Spatial,4132,4,1,83,1600,10,20,2,l,l,-1600,0,-1600,0,=,L,S,0.265158176122837,0.391132069967257,1.07839649221964,1.59583629561634,1.1786599533561,267194.5843437,267194.859991948,267194.859991948,267196.45983548,1.6,267197.56028638,267197.56028638,267198.360181176,0.8,267200.101034364,267200.967770932,0.866736567637417,66,Equals to,Index,66,=,Index
220,Spatial,4132,4,1,84,1200,5,5,1,m,m,-800,800,-800,400,L,S,=,0.309671988427669,0.361655028541404,1.71321572241188,1.57259060590084,1.66066165621993,267202.301012195,267202.630401862,267202.630401862,267205.830010696,3.2,267207.580474139,267207.580474139,267209.980350136,2.4,267211.701046072,267212.135579654,0.434533582534641,78,Shorter,Middle,77,=,Ring
220,Spatial,4132,4,1,85,1200,10,7.5,1,r,r,0,800,0,1200,S,=,L,0.349045421795057,0.27338145237285,1.17419723309275,1.27641982070792,1.14913624364863,267213.934464289,267214.300368942,267214.300368942,267215.100191237,0.8,267216.310544786,267216.310544786,267217.910435797,1.6,267219.31738722,267219.791745183,0.474357962608337,77,Longer,Ring,77,L,Ring
220,Spatial,4132,4,1,86,1200,3.33333333333333,7.5,1,m,m,-800,0,-800,400,=,L,S,0.480848448829768,0.3868328542768,1.31018845172269,1.6038874158161,1.3227757197043,267221.100892279,267221.600344304,267221.600344304,267224.000408612,2.4,267225.340537543,267225.340537543,267226.940362789,1.6,267228.684477923,267229.143587518,0.459109594346955,78,Longer,Middle,66,=,Index
220,Spatial,4132,4,1,87,400,2.5,5,2,r,r,0,400,0,400,=,L,S,0.333758085348606,0.381796700392524,1.52171576626224,1.49224667979649,1.10540787258571,267230.617906342,267230.970678638,267230.970678638,267232.570501638,1.6,267234.12069888,267234.12069888,267234.920737396,0.8,267236.551112446,267236.903589969,0.352477522974368,66,Equals to,Index,77,S,Ring
220,Spatial,4132,4,1,88,400,10,5,2,r,r,0,800,0,400,S,=,L,0.400482488576507,0.459649180652502,1.9662384518047,1.66306825064209,1.79946246593704,267238.151271692,267238.570705393,267238.570705393,267239.37067269,0.8,267241.370753256,267241.370753256,267242.170602499,0.8,267243.984584173,267244.39175269,0.407168516772799,66,Shorter,Index,77,L,Ring
220,Spatial,4132,4,1,89,800,3.75,3.33333333333333,1,r,r,0,1200,0,800,S,=,L,0.376224701941016,0.223213382663002,1.52436549477412,1.64741725482453,1.87999891619294,267246.384670982,267246.780993133,267246.780993133,267249.980918598,3.2,267251.540957729,267251.540957729,267253.940809025,2.4,267255.734708822,267256.071803864,0.337095041759312,66,Shorter,Index,66,S,Index
220,Spatial,4132,4,1,90,800,15,5,1,l,l,-1600,-400,-1600,-800,=,L,S,0.294446383113946,0.443439696443072,1.75275206607403,1.9603343194689,1.94572304791318,267258.101359688,267258.410993396,267258.410993396,267259.210853546,0.8,267260.9810537,267260.9810537,267262.581062125,1.6,267264.70136527,267265.175676395,0.474311125464737,77,Shorter,Ring,66,=,Index
220,Spatial,4132,4,1,91,1200,2.5,5,1,l,l,-1600,-800,-1600,-400,=,L,S,0.309816650346425,0.271526094034484,1.04176484624142,1.31690832092453,1.6201633489023,267267.284750734,267267.611017071,267267.611017071,267270.811107428,3.2,267271.871361818,267271.871361818,267274.27119579,2.4,267275.734837191,267276.279827704,0.544990512309596,78,Longer,Middle,66,=,Index
220,Spatial,4132,4,1,92,1200,10,5,1,m,m,-800,800,-800,400,S,=,L,0.288874743208357,0.470251157137361,1.74812783056915,1.41888276532972,1.8849575727721,267278.051511844,267278.351145508,267278.351145508,267279.951139816,1.6,267281.731275856,267281.731275856,267284.131133567,2.4,267285.701504177,267286.215792385,0.514288207341451,66,Shorter,Index,78,=,Middle
220,Spatial,4132,4,1,93,1200,10,5,1,r,r,0,1600,0,1200,S,=,L,0.235701559771931,0.254585248108745,1.32462751672647,1.80040343012677,1.0724365580906,267288.251591981,267288.501404427,267288.501404427,267290.101306987,1.6,267291.461507225,267291.461507225,267293.86126228,2.4,267295.818286399,267296.18376478,0.365478381630965,66,Shorter,Index,78,=,Middle
220,Spatial,4132,4,1,94,400,1.66666666666667,1.25,2,l,l,-1600,-1200,-1600,-1200,=,L,S,0.430788566532819,0.256911499685396,1.27667676941365,1.98672421823894,1.8035905798613,267297.401655852,267297.851493578,267297.851493578,267300.251536713,2.4,267301.561557719,267301.561557719,267304.761536437,3.2,267306.901640775,267307.29573532,0.394094545510598,66,Equals to,Index,78,L,Middle
220,Spatial,4132,4,1,95,1200,10,7.5,1,l,l,-1600,-800,-1600,-400,S,=,L,0.44390895721887,0.490338770019698,1.25801703558177,1.32430239724305,1.26093527587861,267309.251722226,267309.711546844,267309.711546844,267310.511603003,0.8,267311.811761268,267311.811761268,267313.411761672,1.6,267314.868339586,267315.43183724,0.563497654628009,77,Longer,Ring,77,L,Ring
220,Spatial,4132,4,1,96,800,2.5,3.33333333333333,1,r,r,0,400,0,800,S,=,L,0.490783358795473,0.455142068061566,1.6967742852881,1.1237914722383,1.6527462125371,267316.83510214,267317.341967037,267317.341967037,267318.941781376,1.6,267320.66169483,267320.66169483,267323.061724491,2.4,267324.318450038,267325.279781508,0.961331470112782,77,Longer,Ring,77,L,Ring
