Subject,Task,SequenceOrder,ListNo,RunNo,TrialNo,Aud_Probe_Dist,Aud_Standard_Vel,Aud_Probe_Vel,Main_Control,Aud_Std_StartCode,Aud_Probe_StartCode,Aud_Std_StartPt,Aud_Std_EndPt,Aud_Probe_StartPt,Aud_Probe_EndPt,RespIndex,RespMiddle,RespRing,ISI_Cross_Std,ISI_Cross_Probe,ISI_Std_Probe,ISI_Probe_Response,ITI,TrialOnset,StdOnset,StdOnsetByStop,StdOffset,StdDur,ProbeOnset,ProbeOnsetByStop,ProbeOffset,ProbeDur,RespWinStart,RespTime,RT,CorrectKC,CorrectResponse,CorrectFinger,SubjRespKC,SubjResponse,SubjRespFinger
220,Temporal,4132,1,2,1,1200,10,5,1,l,l,-1600,0,-1600,-400,=,L,S,0.323111246711516,0.400430413576626,1.63760201887922,1.53809954927286,1.66686208586278,267355.601926545,267355.936101298,267355.936101298,267357.535809451,1.6,267359.206226019,267359.206226019,267361.606117094,2.4,267363.285324728,267363.687810416,0.402485688508023,78,Longer,Middle,78,L,Middle
220,Temporal,4132,1,2,2,1600,5,5,2,l,l,-1600,-400,-1600,0,L,S,=,0.248265466637711,0.302589217115903,1.70958004009021,1.40561387225744,1.14730150627129,267365.50206372,267365.766256123,267365.766256123,267368.166153614,2.4,267369.906316101,267369.906316101,267373.106193124,3.2,267374.652043863,267375.071869629,0.419825765944552,66,Longer,Index,66,L,Index
220,Temporal,4132,1,2,3,800,1.25,3.33333333333333,1,r,r,0,400,0,800,S,=,L,0.472503778092032,0.439144037540075,1.69444786158875,1.67346419667145,1.05719805526151,267376.368780368,267376.856415004,267376.856415004,267380.056342393,3.2,267381.776279587,267381.776279587,267384.176210441,2.4,267385.985070188,267386.335881786,0.350811597367283,66,Shorter,Index,78,=,Middle
220,Temporal,4132,1,2,4,1600,6.66666666666667,5,2,r,r,0,1600,0,1600,S,=,L,0.322532823686326,0.357165307819765,1.6479076561917,1.38510951019833,1.48279914364,267387.53553333,267387.87648952,267387.87648952,267390.276536184,2.4,267391.946331999,267391.946331999,267395.146377123,3.2,267396.685483959,267397.047664785,0.362180825904943,77,Longer,Ring,77,L,Ring
220,Temporal,4132,1,2,5,1200,10,5,1,m,m,-800,800,-800,400,S,=,L,0.277007513528341,0.402411341751601,1.82993869017166,1.00765428679293,1.7608478478361,267398.68560426,267398.976779653,267398.976779653,267400.576627676,1.6,267402.426861233,267402.426861233,267404.826725361,2.4,267405.968895023,267406.287823377,0.318928353954107,77,Longer,Ring,77,L,Ring
220,Temporal,4132,1,2,6,1200,10,7.5,1,m,m,-800,0,-800,400,=,L,S,0.397940419629215,0.476397927450705,1.43344253514859,1.05464573075276,1.91532878363834,267408.202275706,267408.616726708,267408.616726708,267409.416617013,0.8,267410.886820312,267410.886820312,267412.486648766,1.6,267413.685633453,267414.007869598,0.322236145031638,78,Longer,Middle,78,L,Middle
220,Temporal,4132,1,2,7,800,15,5,1,m,m,-800,400,-800,0,L,S,=,0.231280111387568,0.48198707923701,1.94467294408319,1.16455912117514,1.11650949884042,267416.085656743,267416.336926914,267416.336926914,267417.136771665,0.8,267419.116908282,267419.116908282,267420.71693403,1.6,267422.035656839,267422.423760404,0.388103565201163,66,Longer,Index,77,=,Ring
220,Temporal,4132,1,2,8,1600,20,20,2,r,r,0,1600,0,1600,L,S,=,0.301262450466675,0.290735824621546,1.16833335041202,1.98042221848722,1.5303629325403,267423.685701142,267424.006940189,267424.006940189,267424.806910053,0.8,267426.007023598,267426.007023598,267426.806882143,0.8,267428.935700982,267429.319783292,0.384082310134545,77,Equals to,Ring,78,S,Middle
220,Temporal,4132,1,2,9,800,5,5,1,m,m,-800,400,-800,0,S,=,L,0.339259757869356,0.484554501398759,1.58914825107054,1.31669360913152,1.38911494232226,267431.002427189,267431.357264167,267431.357264167,267433.757170961,2.4,267435.37722929,267435.37722929,267436.977066726,1.6,267438.435375367,267438.823869028,0.388493660604581,66,Shorter,Index,66,S,Index
220,Temporal,4132,1,2,10,1200,5,5,1,m,m,-800,0,-800,400,=,L,S,0.216635302701369,0.265995997133284,1.53204770806977,1.50713355585988,1.14763685446729,267440.352518216,267440.587233441,267440.587233441,267442.187101354,1.6,267443.747423433,267443.747423433,267446.14732734,2.4,267447.802483394,267448.127899971,0.325416577630676,78,Longer,Middle,78,L,Middle
220,Temporal,4132,1,2,11,1600,5,5,2,l,l,-1600,0,-1600,0,L,S,=,0.200185367147045,0.249252006756803,1.65798894781176,1.93505569224083,1.26284747500418,267449.43590822,267449.64741368,267449.64741368,267452.847278193,3.2,267454.54732886,267454.54732886,267457.74732041,3.2,267459.835888843,267460.295761626,0.459872782696038,77,Equals to,Ring,77,=,Ring
220,Temporal,4132,1,2,12,400,1.66666666666667,1.25,2,m,m,-800,-400,-800,-400,S,=,L,0.400687109951073,0.282393626936266,1.39358473237365,1.03155690738877,1.39483117423176,267461.752598337,267462.167681319,267462.167681319,267464.567523953,2.4,267465.997535874,267465.997535874,267469.197474171,3.2,267470.385950662,267470.831891648,0.445940986508504,77,Longer,Ring,77,L,Ring
220,Temporal,4132,1,2,13,1600,7.5,20,2,r,r,0,1200,0,1600,S,=,L,0.364495909886706,0.300130980370181,1.97442749510977,1.12279581302918,1.34514366211879,267472.369376418,267472.747534751,267472.747534751,267474.347499546,1.6,267476.357777451,267476.357777451,267477.157792548,0.8,267478.419360603,267478.83189646,0.412535857642069,66,Shorter,Index,66,S,Index
220,Temporal,4132,1,2,14,1200,20,7.5,1,l,l,-1600,0,-1600,-400,S,=,L,0.380470723999954,0.264710910376415,1.46892578287949,1.73318608122297,1.06438552029014,267480.319448695,267480.718061373,267480.718061373,267481.51763248,0.8,267483.017909698,267483.017909698,267484.61778114,1.6,267486.502749595,267488.975786815,2.473037220072,77,Longer,Ring,66,S,Index
220,Temporal,4132,1,2,15,800,5,5,1,m,m,-800,-400,-800,0,S,=,L,0.382182146325202,0.251711884180182,1.99620677767189,1.49478371525709,1.99513377812626,267490.20277712,267490.598177927,267490.598177927,267491.398050267,0.8,267493.428022537,267493.428022537,267495.027800625,1.6,267496.669473044,267497.279910791,0.610437747382093,77,Longer,Ring,77,L,Ring
220,Temporal,4132,1,2,16,1600,3.75,5,2,l,l,-1600,-400,-1600,0,=,L,S,0.26209190497932,0.248075556603211,1.91125763885579,1.59013081853101,1.92631398687673,267499.436161333,267499.718140932,267499.718140932,267502.918072492,3.2,267504.858169471,267504.858169471,267508.05807248,3.2,267509.786199797,267510.199818362,0.413618564954959,66,Equals to,Index,66,=,Index
220,Temporal,4132,1,2,17,800,5,5,1,m,m,-800,400,-800,0,L,S,=,0.393023264291703,0.229138298387544,1.46934304153636,1.0185762252575,1.22006497157733,267512.269622345,267512.678261695,267512.678261695,267515.07812871,2.4,267516.568161432,267516.568161432,267518.168189425,1.6,267519.336314091,267519.75205554,0.415741448581684,78,Shorter,Middle,78,S,Middle
220,Temporal,4132,1,2,18,400,5,5,2,r,r,0,400,0,400,=,L,S,0.434401388913592,0.260076319580056,1.49512852176803,1.60089361410434,1.74534770918367,267521.119630333,267521.568276279,267521.568276279,267522.368292017,0.8,267523.898649891,267523.898649891,267524.69845775,0.8,267526.452964629,267526.831998796,0.379034167388454,66,Equals to,Index,66,=,Index
220,Temporal,4132,1,2,19,800,5,5,1,l,l,-1600,-400,-1600,-800,S,=,L,0.370138898229981,0.267972341091164,1.04664048015166,1.40204815922713,1.22157176337484,267528.736345537,267529.118711511,267529.118711511,267531.51853618,2.4,267532.598787451,267532.598787451,267534.198647023,1.6,267535.753091371,267536.103785273,0.350693901593331,66,Shorter,Index,66,S,Index
220,Temporal,4132,1,2,20,1200,3.33333333333333,7.5,1,l,l,-1600,-800,-1600,-400,=,L,S,0.247059236849373,0.249680574528853,1.12741140091375,1.34837655482268,1.26434060300815,267537.469773058,267537.728870481,267537.728870481,267540.12870317,2.4,267541.278920751,267541.278920751,267542.878792514,1.6,267544.369739246,267544.807971035,0.438231789856218,77,Shorter,Ring,66,=,Index
220,Temporal,4132,1,2,21,1200,3.33333333333333,7.5,1,r,r,0,800,0,1200,S,=,L,0.220161550655208,0.275383865755578,1.11563048674247,1.90385494682902,1.05686193993492,267546.236453006,267546.469012712,267546.469012712,267548.868576569,2.4,267550.019013257,267550.019013257,267551.618602393,1.6,267553.669859125,267554.079750775,0.409891650546342,66,Shorter,Index,66,S,Index
220,Temporal,4132,1,2,22,400,1.25,1.25,2,r,r,0,400,0,400,S,=,L,0.418013246608908,0.443323213392895,1.77392927831799,1.49833711823849,1.18302269969755,267555.319814421,267555.759024922,267555.759024922,267558.959028662,3.2,267560.758879278,267560.758879278,267563.958891359,3.2,267565.603203659,267566.039926395,0.436722736456431,78,Equals to,Middle,77,L,Ring
220,Temporal,4132,1,2,23,1600,10,20,2,r,r,0,1600,0,1600,=,L,S,0.421649716514867,0.307340274707991,1.55421842579492,1.84308774404171,1.88528887190325,267567.36994488,267567.809084816,267567.809084816,267569.408910062,1.6,267570.989363439,267570.989363439,267571.789214606,0.8,267573.769986145,267574.223949421,0.453963276115246,77,Shorter,Ring,77,S,Ring
220,Temporal,4132,1,2,24,1600,20,20,2,r,r,0,1600,0,1600,=,L,S,0.346424189832307,0.377250771793259,1.13260739294675,1.02719134237718,1.65139878927568,267576.25330346,267576.619132724,267576.619132724,267577.419120874,0.8,267578.589348489,267578.589348489,267579.389178483,0.8,267580.56996246,267581.344008025,0.774045565456618,66,Equals to,Index,66,=,Index
220,Temporal,4132,1,2,25,800,1.66666666666667,5,1,l,l,-1600,-1200,-1600,-800,L,S,=,0.304801457009918,0.452750902028618,1.77096570423467,1.71705124945003,1.06308374603418,267582.453369161,267582.769261077,267582.769261077,267585.169160814,2.4,267586.969416923,267586.969416923,267588.56935445,1.6,267590.436689052,267591.071761518,0.635072465986013,78,Shorter,Middle,78,S,Middle
220,Temporal,4132,1,2,26,800,1.25,3.33333333333333,1,r,r,0,400,0,800,L,S,=,0.312291519980812,0.216716159381967,1.03014634591716,1.79177414247957,1.32328578419596,267592.286743877,267592.60924913,267592.60924913,267595.809286234,3.2,267596.86955089,267596.86955089,267599.269378767,2.4,267601.203418724,267601.655940326,0.452521601167973,78,Shorter,Middle,66,L,Index
220,Temporal,4132,1,2,27,1200,2.5,5,1,r,r,0,800,0,1200,S,=,L,0.350436301120433,0.445272312640838,1.24211286999348,1.33931504337677,1.14981358092221,267603.153515859,267603.519890331,267603.519890331,267606.719408377,3.2,267607.989783369,267607.989783369,267610.389699466,2.4,267611.870221742,267612.255771391,0.385549649246968,66,Shorter,Index,66,S,Index
220,Temporal,4132,1,2,28,1600,10,20,2,m,m,-800,800,-800,800,L,S,=,0.280381463651512,0.224789779689997,1.14963485068318,1.54910522471919,1.83942436882333,267613.553532256,267613.849828935,267613.849828935,267615.449700377,1.6,267616.639989356,267616.639989356,267617.439813255,0.8,267619.136862221,267619.61601778,0.479155558918137,78,Shorter,Middle,78,S,Middle
220,Temporal,4132,1,2,29,1200,2.5,5,1,m,m,-800,0,-800,400,S,=,L,0.361054237030569,0.489984853845435,1.52909555524469,1.32159790615405,1.95816237881149,267621.603603359,267621.980041249,267621.980041249,267625.179967676,3.2,267626.750155384,267626.750155384,267629.150039401,2.4,267630.620325424,267631.327798213,0.707472788519226,66,Shorter,Index,78,=,Middle
220,Temporal,4132,1,2,30,800,1.25,3.33333333333333,1,l,l,-1600,-1200,-1600,-800,L,S,=,0.447068777434724,0.366506263145766,1.26583532926679,1.00850944610162,1.04651793195548,267633.437031027,267633.900157661,267633.900157661,267637.100007417,3.2,267638.400273792,267638.400273792,267640.800172887,2.4,267641.953694775,267642.695993117,0.742298342171125,78,Shorter,Middle,78,S,Middle
220,Temporal,4132,1,2,31,800,2.5,3.33333333333333,1,l,l,-1600,-1200,-1600,-800,L,S,=,0.300395260823094,0.408797320268858,1.79187648299383,1.48340016153,1.67683736784013,267643.903741066,267644.2203195,267644.2203195,267645.82018645,1.6,267647.640258509,267647.640258509,267650.040118787,2.4,267651.670462952,NaN,NaN,66,Longer,Index,999,Missed,Missed
220,Temporal,4132,1,2,32,1200,5,5,1,r,r,0,1600,0,1200,=,L,S,0.263656913734585,0.315473752608875,1.78918147444346,1.59930896234392,1.93231884787011,267656.487139362,267656.770619033,267656.770619033,267659.970156327,3.2,267661.790664676,267661.790664676,267664.190529445,2.4,267665.937151007,267666.312154937,0.375003929832019,77,Shorter,Ring,66,=,Index
220,Temporal,4132,1,2,33,800,2.5,3.33333333333333,1,r,r,0,400,0,800,L,S,=,0.289707199677402,0.202773128562691,1.01305051161929,1.63540359151491,1.22090604021763,267668.403863613,267668.71058155,267668.71058155,267670.310410967,1.6,267671.350559402,267671.350559402,267673.750406206,2.4,267675.53720503,267675.936035257,0.398830226971768,66,Longer,Index,66,L,Index
220,Temporal,4132,1,2,34,1200,5,5,1,l,l,-1600,0,-1600,-400,S,=,L,0.203732571686448,0.215795703715937,1.5753619747243,1.55101248298866,1.36260556684355,267677.303961281,267677.520598662,267677.520598662,267680.720479535,3.2,267682.330719713,267682.330719713,267684.730813535,2.4,267686.437298256,267687.055903626,0.618605370342266,66,Shorter,Index,78,=,Middle
220,Temporal,4132,1,2,35,1200,5,5,1,m,m,-800,0,-800,400,=,L,S,0.253056348689682,0.267508854784183,1.54017761575462,1.15992622950884,1.01061567183779,267688.570655072,267688.840801242,267688.840801242,267690.440627451,1.6,267692.010925835,267692.010925835,267694.410742484,2.4,267695.720735664,267697.5440317,1.82329603616381,78,Longer,Middle,78,L,Middle
220,Temporal,4132,1,2,36,1200,5,5,1,m,m,-800,800,-800,400,=,L,S,0.24120132522894,0.483187824030323,1.57523846280481,1.12288857794062,1.5286653610583,267698.720726001,267698.980889129,267698.980889129,267702.180963446,3.2,267703.79113016,267703.79113016,267706.191001987,2.4,267707.454066905,267707.848037621,0.393970715929754,77,Shorter,Ring,77,S,Ring
220,Temporal,4132,1,2,37,1200,10,7.5,1,m,m,-800,0,-800,400,=,L,S,0.304572789644269,0.365553851756205,1.79562951291663,1.6711020070634,1.16679952180341,267709.520824872,267709.840954265,267709.840954265,267710.640964229,0.8,267712.461321801,267712.461321801,267714.061156671,1.6,267715.870850466,267716.168008582,0.29715811641654,78,Longer,Middle,78,L,Middle
220,Temporal,4132,1,2,38,800,1.66666666666667,5,1,r,r,0,400,0,800,S,=,L,0.225582017886305,0.465275106999211,1.38850999085421,1.34748807156782,1.71313749555735,267717.487499302,267717.731182182,267717.731182182,267720.13120671,2.4,267721.561392185,267721.561392185,267723.16125689,1.6,267724.654172706,267725.016052298,0.361879592644982,66,Shorter,Index,66,S,Index
220,Temporal,4132,1,2,39,800,5,5,1,m,m,-800,400,-800,0,=,L,S,0.453397619077443,0.308619268343287,1.49518168865327,1.18643468635983,1.85215569884012,267726.887561089,267727.35145829,267727.35145829,267729.751363801,2.4,267731.281694086,267731.281694086,267732.881223232,1.6,267734.220965971,267734.679830463,0.458864491549321,77,Shorter,Ring,77,S,Ring
220,Temporal,4132,1,2,40,1200,20,7.5,1,l,l,-1600,0,-1600,-400,=,L,S,0.334644453930087,0.280754650861778,1.4583575641638,1.20449746693418,1.59105556717381,267736.687610877,267737.041520737,267737.041520737,267737.841511132,0.8,267739.331589729,267739.331589729,267740.931519236,1.6,267742.287614534,267743.07983258,0.792218045389745,78,Longer,Middle,78,L,Middle
220,Temporal,4132,1,2,41,400,2.5,5,2,l,l,-1600,-1200,-1600,-1200,=,L,S,0.303759736845202,0.42864003485873,1.02442630393603,1.08022235630553,1.84063387428098,267744.821038911,267745.141925718,267745.141925718,267746.74145358,1.6,267747.791876346,267747.791876346,267748.59173008,0.8,267749.821065869,267750.168017565,0.34695169585757,77,Shorter,Ring,77,S,Ring
220,Temporal,4132,1,2,42,1600,5,5,2,r,r,0,1600,0,1600,=,L,S,0.341661438053388,0.361820282842832,1.082105443911,1.39935643995417,1.96135515675687,267752.171040804,267752.531707399,267752.531707399,267755.73165917,3.2,267756.851860255,267756.851860255,267760.051884206,3.2,267761.604397364,267761.96813793,0.363740566011984,66,Equals to,Index,78,L,Middle
220,Temporal,4132,1,2,43,1200,20,7.5,1,r,r,0,1600,0,1200,=,L,S,0.380309418360769,0.426378531589495,1.67522124794211,1.24474396713491,1.74432397538686,267764.087782057,267764.481894523,267764.481894523,267765.281710081,0.8,267766.991960011,267766.991960011,267768.591972927,1.6,267769.987796686,267770.328093992,0.340297306654975,78,Longer,Middle,78,L,Middle
220,Temporal,4132,1,2,44,1200,3.33333333333333,7.5,1,l,l,-1600,-800,-1600,-400,L,S,=,0.275724713484121,0.396299077150114,1.25465191838065,1.14762002134551,1.25584774198161,267772.237866521,267772.531952171,267772.531952171,267774.931939486,2.4,267776.222170528,267776.222170528,267777.82203395,1.6,267779.121179808,267780.1918352,1.07065539236646,78,Shorter,Middle,77,=,Ring
220,Temporal,4132,1,2,45,400,2.5,1.25,2,l,l,-1600,-800,-1600,-1200,=,L,S,0.333017615372835,0.375702677449238,1.38083984246968,1.323749325116,1.11471404515238,267781.587922569,267781.932447682,267781.932447682,267785.132046891,3.2,267786.552224301,267786.552224301,267789.752094267,3.2,267791.221309501,267791.599835236,0.378525734588038,66,Equals to,Index,78,L,Middle
220,Temporal,4132,1,2,46,800,5,5,1,l,l,-1600,-1200,-1600,-800,L,S,=,0.489525667611085,0.265232852484924,1.29964540314646,1.82808445707744,1.26317506778455,267792.87129257,267793.372552956,267793.372552956,267794.172404123,0.8,267795.502352077,267795.502352077,267797.102260411,1.6,267799.08796299,267799.463980975,0.37601798545802,66,Longer,Index,66,L,Index
220,Temporal,4132,1,2,47,800,3.75,3.33333333333333,1,r,r,0,1200,0,800,S,=,L,0.360768288522974,0.224564482188152,1.89121097195957,1.0691379894149,1.90359899665238,267800.888003796,267801.262448843,267801.262448843,267804.462294428,3.2,267806.382509372,267806.382509372,267808.782428357,2.4,267810.004753559,267810.407869469,0.403115910245106,66,Shorter,Index,78,=,Middle
220,Temporal,4132,1,2,48,800,15,5,1,r,r,0,1200,0,800,S,=,L,0.267165320209763,0.35044513819962,1.96113839304265,1.7453056389149,1.48540759523993,267812.45478871,267812.732732298,267812.732732298,267813.532575765,0.8,267815.532750327,267815.532750327,267817.132551834,1.6,267819.037780549,267819.488223353,0.450442803208716,77,Longer,Ring,77,L,Ring
220,Temporal,4132,1,2,49,800,1.66666666666667,5,1,m,m,-800,-400,-800,0,S,=,L,0.259721670474958,0.282565904782876,1.83944946770806,1.59186835743245,1.6149711935539,267837.104918346,267837.382990576,267837.382990576,267839.782844437,2.4,267841.663185918,267841.663185918,267843.263038433,1.6,267844.98824613,267845.34405775,0.355811619840097,66,Shorter,Index,66,S,Index
220,Temporal,4132,1,2,50,800,5,5,1,r,r,0,400,0,800,=,L,S,0.420326320039193,0.466983153953819,1.38578484100877,1.54868668683123,1.55390510052644,267847.121618023,267847.553384963,267847.553384963,267848.353217203,0.8,267849.773343605,267849.773343605,267851.37319612,1.6,267853.071621969,267853.392030184,0.3204082143493,78,Longer,Middle,78,L,Middle
220,Temporal,4132,1,2,51,1200,5,5,1,m,m,-800,0,-800,400,S,=,L,0.351932221368373,0.494736363089502,1.99015326458916,1.30427785941698,1.91295471475906,267855.088382278,267855.45328282,267855.45328282,267857.053172868,1.6,267859.073356822,267859.073356822,267861.473218704,2.4,267862.921681927,267863.271898437,0.350216509366874,77,Longer,Ring,77,L,Ring
220,Temporal,4132,1,2,52,1200,10,7.5,1,m,m,-800,0,-800,400,L,S,=,0.471761109488372,0.342149198237023,1.85315552903234,1.96173846363546,1.18260490922653,267865.321764887,267865.813219635,267865.813219635,267866.613203293,0.8,267868.493510769,267868.493510769,267870.093387985,1.6,267872.205072139,267872.608166789,0.40309465007158,66,Longer,Index,66,L,Index
220,Temporal,4132,1,2,53,1200,2.5,5,1,m,m,-800,0,-800,400,L,S,=,0.382700547565374,0.364932089110865,1.76033679193073,1.84926995284194,1.68083319863905,267873.938493564,267874.333514221,267874.333514221,267877.533427816,3.2,267879.333452627,267879.333452627,267881.73349095,2.4,267883.738538454,267884.600102785,0.861564331338741,78,Shorter,Middle,78,S,Middle
220,Temporal,4132,1,2,54,1200,10,5,1,l,l,-1600,0,-1600,-400,S,=,L,0.459018513918034,0.296077822717445,1.88249975576849,1.75299094824451,1.94089118567834,267886.438533985,267886.913695513,267886.913695513,267888.513548669,1.6,267890.424018926,267890.424018926,267892.823570592,2.4,267894.721942113,267895.128048182,0.406106068578083,77,Longer,Ring,77,L,Ring
220,Temporal,4132,1,2,55,1200,6.66666666666667,7.5,1,l,l,-1600,0,-1600,-400,S,=,L,0.436381821935602,0.445708789502995,1.46832183728698,1.0354249567051,1.32687279016489,267897.221975953,267897.673879858,267897.673879858,267900.073757139,2.4,267901.574156582,267901.574156582,267903.173990169,1.6,267904.355334004,267904.720163314,0.364829309983179,66,Shorter,Index,66,S,Index
220,Temporal,4132,1,2,56,1200,6.66666666666667,7.5,1,l,l,-1600,0,-1600,-400,L,S,=,0.41650262857664,0.322761018738587,1.63525083979736,1.41869223182425,1.80002352725282,267906.188687168,267906.623984536,267906.623984536,267909.023860212,2.4,267910.68399475,267910.68399475,267912.284038784,1.6,267913.855334587,267914.704179988,0.848845400905702,78,Shorter,Middle,77,=,Ring
220,Temporal,4132,1,2,57,400,2.5,1.25,2,m,m,-800,0,-800,-400,=,L,S,0.292327744657881,0.302706098463702,1.01529086111852,1.20819773639509,1.4419912208153,267916.655422182,267916.964305261,267916.964305261,267920.164181643,3.2,267921.20441477,267921.20441477,267924.40425426,3.2,267925.755459854,267926.112092766,0.356632912007626,66,Equals to,Index,78,L,Middle
220,Temporal,4132,1,2,58,1600,5,5,2,l,l,-1600,-400,-1600,0,=,L,S,0.378897331603561,0.397952338648596,1.28039556421175,1.34927701008526,1.27747906630402,267927.722122132,267928.114459599,267928.114459599,267930.514324047,2.4,267931.814183004,267931.814183004,267935.01418129,3.2,267936.505464544,267936.81615534,0.310690796119161,78,Longer,Middle,78,L,Middle
220,Temporal,4132,1,2,59,400,1.66666666666667,1.25,2,r,r,0,400,0,400,S,=,L,0.448315925723719,0.21298779371514,1.85482821124892,1.31839077733459,1.96123596774878,267938.255507371,267938.714699687,267938.714699687,267941.114520186,2.4,267942.99453894,267942.99453894,267946.194469538,3.2,267947.655583914,267948.352081974,0.696498059434816,77,Longer,Ring,77,L,Ring
220,Temporal,4132,1,2,60,1200,3.33333333333333,7.5,1,m,m,-800,0,-800,400,L,S,=,0.476947023377121,0.351596703728651,1.88044422105203,1.11921661299351,1.56845126543239,267950.472249651,267950.964768179,267950.964768179,267953.364679464,2.4,267955.264777225,267955.264777225,267956.86464578,1.6,267958.122260911,267958.736138299,0.61387738812482,78,Shorter,Middle,78,S,Middle
220,Temporal,4132,1,2,61,1200,5,5,1,r,r,0,1600,0,1200,L,S,=,0.272235052661228,0.306818845328265,1.74472112948968,1.45047038364393,1.80048886655597,267960.455691447,267960.74491091,267960.74491091,267963.944769648,3.2,267965.715085933,267965.715085933,267968.114882051,2.4,267969.705729103,267970.288129743,0.582400639657862,78,Shorter,Middle,77,=,Ring
220,Temporal,4132,1,2,62,400,10,5,2,r,r,0,800,0,400,=,L,S,0.256957311828358,0.360074983776146,1.43337227970749,1.15753970289248,1.77209612667528,267972.239051503,267972.514979812,267972.514979812,267973.314835149,0.8,267974.775197521,267974.775197521,267975.575058312,0.8,267976.872380089,267977.280116746,0.407736657361966,66,Equals to,Index,66,=,Index
220,Temporal,4132,1,2,63,800,7.5,3.33333333333333,1,l,l,-1600,-400,-1600,-800,L,S,=,0.471912577460515,0.269085061433843,1.29912345777041,1.61939921058151,1.19834401224249,267979.205796189,267979.695083598,267979.695083598,267981.294965626,1.6,267982.615040251,267982.615040251,267985.015115466,2.4,267986.772450792,267987.168104181,0.39565338921966,66,Longer,Index,66,L,Index
220,Temporal,4132,1,2,64,800,7.5,3.33333333333333,1,l,l,-1600,-400,-1600,-800,S,=,L,0.437994343068476,0.345103128542568,1.50397257188809,1.1525148682443,1.37245821838369,267988.522485344,267988.975436775,267988.975436775,267990.574989981,1.6,267992.10547746,267992.10547746,267994.505356344,2.4,267995.805824227,267996.760147133,0.954322905337904,77,Longer,Ring,77,L,Ring
220,Temporal,4132,1,2,65,400,5,5,2,m,m,-800,0,-800,-400,=,L,S,0.39485054161264,0.274715273699083,1.56712925469061,1.87729793218948,1.19227877700843,267998.289251588,267998.695442255,267998.695442255,268000.295311451,1.6,268001.885488983,268001.885488983,268002.685352661,0.8,268004.722614525,268005.256259331,0.533644806651864,77,Shorter,Ring,77,S,Ring
220,Temporal,4132,1,2,66,1200,6.66666666666667,7.5,1,m,m,-800,800,-800,400,S,=,L,0.27517645960168,0.439074654060533,1.18092753080345,1.79171880303987,1.23746527629821,268006.605977266,268006.895529128,268006.895529128,268009.295430789,2.4,268010.505606614,268010.505606614,268012.10545977,1.6,268014.039271959,268014.423976304,0.384704345487989,66,Shorter,Index,66,S,Index
220,Temporal,4132,1,2,67,1600,15,20,2,r,r,0,1200,0,1600,S,=,L,0.397130304988861,0.339013951123804,1.28119458893898,1.06489701965595,1.91953324436347,268015.805999385,268016.215607878,268016.215607878,268017.015428248,0.8,268018.315566623,268018.315566623,268019.115561189,0.8,268020.322710349,268020.69599055,0.373280201281887,78,Equals to,Middle,78,=,Middle
220,Temporal,4132,1,2,68,400,3.33333333333333,1.25,2,r,r,0,800,0,400,S,=,L,0.483337334317096,0.435679725852697,1.55555012440628,1.6966851353257,1.17727156803715,268022.772641816,268023.27581314,268023.27581314,268025.67576228,2.4,268027.255567316,268027.255567316,268030.455673713,3.2,268032.306052318,268032.66403256,0.357980242406484,77,Longer,Ring,77,L,Ring
220,Temporal,4132,1,2,69,1600,15,20,2,l,l,-1600,-400,-1600,0,=,L,S,0.384870709839026,0.316997172138536,1.85386910051033,1.14458092961469,1.98393348460759,268033.989483143,268034.385992321,268034.385992321,268035.185839639,0.8,268037.076174749,268037.076174749,268037.875665334,0.8,268039.172778589,268039.528148785,0.35537019604817,66,Equals to,Index,66,=,Index
220,Temporal,4132,1,2,70,800,7.5,3.33333333333333,1,r,r,0,1200,0,800,S,=,L,0.281110195405713,0.386510756123435,1.58269855594998,1.87245336245533,1.32537782950429,268041.672846279,268041.966093412,268041.966093412,268043.566041526,1.6,268045.186072586,268045.186072586,268047.585979059,2.4,268049.60615568,268050.040079097,0.433923416829202,77,Longer,Ring,77,L,Ring
220,Temporal,4132,1,2,71,800,5,5,1,l,l,-1600,-1200,-1600,-800,=,L,S,0.379772730601225,0.31048452242055,1.29290137452333,1.81749291417162,1.2700706819337,268051.506252113,268051.906085444,268051.906085444,268052.705955217,0.8,268054.026354173,268054.026354173,268055.625950367,1.6,268057.589592898,268058.168136582,0.578543683921453,78,Longer,Middle,78,L,Middle
220,Temporal,4132,1,2,72,1200,5,5,1,l,l,-1600,-800,-1600,-400,L,S,=,0.205389281967018,0.492383280148988,1.78676209144518,1.915070921569,1.16105989446052,268059.589609988,268059.806119641,268059.806119641,268061.406086682,1.6,268063.226415382,268063.226415382,268065.626351049,2.4,268067.68959953,268068.064237104,0.374637573724613,66,Longer,Index,66,L,Index
220,Temporal,4132,1,2,73,800,1.66666666666667,5,1,l,l,-1600,-1200,-1600,-800,L,S,=,0.276739731877658,0.219724831474866,1.98785106907091,1.60549206511178,1.94843072095441,268077.839722429,268078.13675182,268078.13675182,268080.536587717,2.4,268082.55644317,268082.55644317,268084.156342522,1.6,268085.906408857,268086.336100894,0.429692036355846,78,Shorter,Middle,78,S,Middle
220,Temporal,4132,1,2,74,800,3.75,3.33333333333333,1,r,r,0,1200,0,800,=,L,S,0.397276627693245,0.249197341409936,1.97903123249357,1.13968738957243,1.86300757649561,268088.439796984,268088.856792588,268088.856792588,268092.056708429,3.2,268094.066611636,268094.066611636,268096.466608576,2.4,268097.756471702,268098.592155553,0.835683850746136,77,Shorter,Ring,77,S,Ring
220,Temporal,4132,1,2,75,800,3.75,3.33333333333333,1,m,m,-800,400,-800,0,=,L,S,0.451925595460153,0.338583697569724,1.19556267607095,1.75456945749875,1.88095590074192,268100.606504071,268101.076905215,268101.076905215,268104.276767161,3.2,268105.496853207,268105.496853207,268107.896861054,2.4,268109.789921112,268110.832030556,1.04210944386432,77,Shorter,Ring,77,S,Ring
220,Temporal,4132,1,2,76,800,15,5,1,r,r,0,1200,0,800,L,S,=,0.311134204424491,0.382214926332061,1.70523725499178,1.8922742825501,1.12455039092421,268112.873235027,268113.197138336,268113.197138336,268113.996992711,0.8,268115.727189478,268115.727189478,268117.327051616,1.6,268119.356587319,268119.552185208,0.195597888610791,66,Longer,Index,78,S,Middle
220,Temporal,4132,1,2,77,400,5,5,2,m,m,-800,0,-800,-400,=,L,S,0.203523891254361,0.369299462691133,1.66297470932376,1.8467088720785,1.98481074702443,268120.823317248,268121.037075381,268121.037075381,268122.637076107,1.6,268124.337187085,268124.337187085,268125.137193199,0.8,268127.139961812,268127.608180263,0.46821845084196,77,Shorter,Ring,77,S,Ring
220,Temporal,4132,1,2,78,1200,2.5,5,1,r,r,0,800,0,1200,=,L,S,0.428705750639762,0.318007242384896,1.83075853401116,1.7693288471716,1.77703088011825,268129.740049198,268130.187455885,268130.187455885,268133.387354402,3.2,268135.257339107,268135.257339107,268137.65727349,2.4,268139.573404346,268139.976181081,0.402776735136285,77,Shorter,Ring,77,S,Ring
220,Temporal,4132,1,2,79,1600,7.5,20,2,m,m,-800,400,-800,800,=,L,S,0.422218669100056,0.298876585482772,1.15635368448491,1.85501301567641,1.9912916518201,268141.890129431,268142.327272052,268142.327272052,268143.927287855,1.6,268145.107490814,268145.107490814,268145.907348397,0.8,268147.90681614,268148.640223265,0.73340712528443,77,Shorter,Ring,66,=,Index
220,Temporal,4132,1,2,80,800,7.5,3.33333333333333,1,m,m,-800,400,-800,0,L,S,=,0.446955877784202,0.434985846209163,1.37771114719493,1.81297199008782,1.6162977849941,268150.773473479,268151.237711468,268151.237711468,268152.837579702,1.6,268154.247821548,268154.247821548,268156.647692412,2.4,268158.606817495,268159.000197935,0.393380439898465,66,Longer,Index,66,L,Index
220,Temporal,4132,1,2,81,1200,20,7.5,1,l,l,-1600,0,-1600,-400,S,=,L,0.280482432480395,0.284738343163781,1.43398854620864,1.68263202673828,1.45278587264191,268160.790196671,268161.087762764,268161.087762764,268161.887603986,0.8,268163.357713611,268163.357713611,268164.957598847,1.6,268166.790269921,268167.232228683,0.441958762181457,77,Longer,Ring,77,L,Ring
220,Temporal,4132,1,2,82,800,3.75,3.33333333333333,1,m,m,-800,400,-800,0,=,L,S,0.452116822402599,0.299616060756044,1.88486293795599,1.27895277001387,1.8832961901687,268168.840290249,268169.307784284,268169.307784284,268172.507715202,3.2,268174.42803986,268174.42803986,268176.827911045,2.4,268178.256944886,268178.856042277,0.599097391066607,77,Shorter,Ring,77,S,Ring
220,Temporal,4132,1,2,83,1600,3.75,5,2,l,l,-1600,-400,-1600,0,S,=,L,0.290384300546979,0.280412802659793,1.11633192242318,1.03025942746112,1.05526877594723,268180.890363937,268181.198010918,268181.198010918,268184.39793959,3.2,268185.538250159,268185.538250159,268188.738118521,3.2,268189.92373823,268190.360192173,0.436453942907974,78,Equals to,Middle,78,=,Middle
220,Temporal,4132,1,2,84,800,2.5,3.33333333333333,1,m,m,-800,-400,-800,0,L,S,=,0.258808084495098,0.454607185427373,1.59435727192235,1.07662443225047,1.54002520160243,268191.557101822,268191.828105817,268191.828105817,268193.427979184,1.6,268195.048450705,268195.048450705,268197.448013599,2.4,268198.673728805,268199.016205,0.342476194899064,66,Longer,Index,66,L,Index
220,Temporal,4132,1,2,85,800,1.25,3.33333333333333,1,r,r,0,400,0,800,L,S,=,0.25029067684955,0.297543862923107,1.50540461899833,1.05890794199269,1.65550194600985,268200.707154145,268200.968370787,268200.968370787,268204.168262568,3.2,268205.708547985,268205.708547985,268208.10841885,2.4,268209.306764498,268209.792358878,0.485594379075337,78,Shorter,Middle,77,=,Ring
220,Temporal,4132,1,2,86,400,3.33333333333333,1.25,2,l,l,-1600,-800,-1600,-1200,L,S,=,0.498789535873512,0.35173486058914,1.83715210546547,1.23923825110254,1.71421885478364,268211.590541918,268212.108538554,268212.108538554,268214.508383112,2.4,268216.378590774,268216.378590774,268219.578449191,3.2,268220.95720018,268221.480220622,0.523020442109555,66,Longer,Index,66,L,Index
220,Temporal,4132,1,2,87,1600,6.66666666666667,5,2,m,m,-800,800,-800,800,L,S,=,0.463698607931358,0.46308200838581,1.89527462107232,1.32180440890626,1.25239842497929,268223.390621862,268223.868826198,268223.868826198,268226.268722726,2.4,268228.198808432,268228.198808432,268231.39877111,3.2,268232.857330404,268233.464233767,0.606903362844605,66,Longer,Index,66,L,Index
220,Temporal,4132,1,2,88,1200,10,7.5,1,r,r,0,800,0,1200,S,=,L,0.326575370311036,0.441941586986963,1.62357777747331,1.54440559517488,1.51722327561023,268234.874027952,268235.218825203,268235.218825203,268236.018651989,0.8,268237.678696382,268237.678696382,268239.278751323,1.6,268240.97398487,268241.952364087,0.978379217674956,77,Longer,Ring,77,L,Ring
220,Temporal,4132,1,2,89,400,2.5,5,2,l,l,-1600,-1200,-1600,-1200,L,S,=,0.47102237502645,0.2466069616211,1.72396042552545,1.52323175300302,1.61984321549271,268243.624073443,268244.109022965,268244.109022965,268245.708884783,1.6,268247.459012346,268247.459012346,268248.258871213,0.8,268249.924100144,268250.352361713,0.428261569526512,78,Shorter,Middle,78,S,Middle
220,Temporal,4132,1,2,90,800,15,5,1,m,m,-800,400,-800,0,L,S,=,0.343989338944889,0.268054769092327,1.55377192393426,1.84898833191931,1.88358694799041,268252.124128621,268252.479248867,268252.479248867,268253.279068917,0.8,268254.859267577,268254.859267577,268256.45916372,1.6,268258.457426666,268258.856117344,0.398690678062849,66,Longer,Index,66,L,Index
220,Temporal,4132,1,2,91,400,10,5,2,m,m,-800,0,-800,-400,S,=,L,0.331256258421048,0.390052450436126,1.96829578676872,1.23977479112841,1.00777774719411,268260.890814343,268261.239342105,268261.239342105,268262.039141944,0.8,268264.039480114,268264.039480114,268264.838988665,0.8,268266.224207035,268266.880124895,0.655917859519832,78,Equals to,Middle,66,S,Index
220,Temporal,4132,1,2,92,1200,6.66666666666667,7.5,1,m,m,-800,800,-800,400,L,S,=,0.346915812799186,0.423593648109409,1.2248585823322,1.05978721098124,1.907499764869,268268.074232336,268268.43946972,268268.43946972,268270.839345076,2.4,268272.099317737,268272.099317737,268273.699298893,1.6,268274.890872088,268276.784106242,1.89323415415129,78,Shorter,Middle,77,=,Ring
220,Temporal,4132,1,2,93,1200,10,5,1,l,l,-1600,0,-1600,-400,S,=,L,0.209869469742639,0.481642342862616,1.75764606269063,1.43297580292944,1.15239429910128,268278.87424812,268279.099345005,268279.099345005,268280.699290873,1.6,268282.4796457,268282.4796457,268284.879267301,2.4,268286.457655729,268286.864332767,0.406677037826739,77,Longer,Ring,77,L,Ring
220,Temporal,4132,1,2,94,400,5,5,2,r,r,0,400,0,400,L,S,=,0.461857334517809,0.411366329485913,1.97379558245264,1.43998941154279,1.89739861026446,268288.190978658,268288.669647195,268288.669647195,268289.46930556,0.8,268291.479566141,268291.479566141,268292.279428215,0.8,268293.857649175,268294.232301505,0.374652330647223,77,Equals to,Ring,78,S,Middle
220,Temporal,4132,1,2,95,800,2.5,3.33333333333333,1,r,r,0,400,0,800,=,L,S,0.388914775833381,0.391058528711828,1.35699193394948,1.30131250129268,1.4139032477098,268296.291024341,268296.699779821,268296.699779821,268298.299671152,1.6,268299.679769465,268299.679769465,268302.079731116,2.4,268303.524373265,268304.136304025,0.611930760613177,78,Longer,Middle,78,L,Middle
220,Temporal,4132,1,2,96,400,1.25,1.25,2,l,l,-1600,-1200,-1600,-1200,L,S,=,0.261444481493883,0.348214743346492,1.96830372345756,1.51502025536535,1.78245816158763,268305.707800561,268305.979890793,268305.979890793,268309.179841922,3.2,268311.169875285,268311.169875285,268314.369840529,3.2,268316.041142877,268316.448115063,0.40697218576679,77,Equals to,Ring,66,L,Index
