Subject,Task,SequenceOrder,ListNo,RunNo,TrialNo,Aud_Probe_Dist,Aud_Standard_Vel,Aud_Probe_Vel,Main_Control,Aud_Std_StartCode,Aud_Probe_StartCode,Aud_Std_StartPt,Aud_Std_EndPt,Aud_Probe_StartPt,Aud_Probe_EndPt,RespIndex,RespMiddle,RespRing,ISI_Cross_Std,ISI_Cross_Probe,ISI_Std_Probe,ISI_Probe_Response,ITI,TrialOnset,StdOnset,StdOnsetByStop,StdOffset,StdDur,ProbeOnset,ProbeOnsetByStop,ProbeOffset,ProbeDur,RespWinStart,RespTime,RT,CorrectKC,CorrectResponse,CorrectFinger,SubjRespKC,SubjResponse,SubjRespFinger
204,Spatial,4132,4,1,1,1200,20,7.5,1,l,l,-1600,0,-1600,-400,=,L,S,0.431677203405625,0.215362538295472,1.53900604883153,1.28881235988619,1.70483327187749,781451.168827107,781451.611660984,781451.611660984,781452.413986698,0.8,781453.994246704,781453.994246704,781455.594068496,1.6,781457.018831067,781457.730025353,0.711194286122918,77,Shorter,Ring,66,=,Index
204,Spatial,4132,4,1,2,1200,2.5,5,1,m,m,-800,0,-800,400,L,S,=,0.33227143956183,0.410601678999196,1.49553399959493,1.01456724574,1.35905933180143,781459.585558335,781459.934466563,781459.934466563,781463.134285338,3.2,781464.664440267,781464.664440267,781467.064345402,2.4,781468.235589501,781468.777903425,0.542313924524933,66,Longer,Index,66,L,Index
204,Spatial,4132,4,1,3,1200,3.33333333333333,7.5,1,m,m,-800,0,-800,400,S,=,L,0.431549851809619,0.46120611104818,1.57123317926423,1.18043604936622,1.82211928422758,781470.285636514,781470.734572363,781470.734572363,781473.134411093,2.4,781474.734546699,781474.734546699,781476.334398646,1.6,781477.668954946,781479.177993378,1.50903843180276,77,Longer,Ring,77,L,Ring
204,Spatial,4132,4,1,4,400,2.5,5,2,r,r,0,400,0,400,S,=,L,0.207311462324877,0.409066337167087,1.52520648855868,1.92886582792448,1.80979382688006,781481.152336288,781481.374517519,781481.374517519,781482.974562588,1.6,781484.525013045,781484.525013045,781485.324552275,0.8,781487.402367325,781487.874110296,0.47174297098536,78,Equals to,Middle,66,S,Index
204,Spatial,4132,4,1,5,1200,5,5,1,m,m,-800,800,-800,400,L,S,=,0.342624569502395,0.243956569475043,1.19929917920804,1.42153097728578,1.38754311726621,781489.835718335,781490.194814909,781490.194814909,781493.394540973,3.2,781494.615062766,781494.615062766,781497.014894439,2.4,781498.585725793,781498.937937032,0.352211238932796,78,Shorter,Middle,77,=,Ring
204,Spatial,4132,4,1,6,1200,5,5,1,r,r,0,1600,0,1200,=,L,S,0.402833047230785,0.368432154340993,1.94439269273723,1.56455836970925,1.47164915128762,781500.469109829,781500.884988652,781500.884988652,781504.084759949,3.2,781506.065199412,781506.065199412,781508.465098773,2.4,781510.185786297,781511.185975249,1.00018895219546,77,Shorter,Ring,66,=,Index
204,Spatial,4132,4,1,7,400,5,5,2,l,l,-1600,-800,-1600,-1200,=,L,S,0.451054205697381,0.436336537973618,1.08895825415182,1.26121052956892,1.53103124361248,781512.802515664,781513.265152318,781513.265152318,781514.864958711,1.6,781515.985281576,781515.985281576,781516.7851708,0.8,781518.202040043,781518.54589696,0.343856917344965,77,Shorter,Ring,77,S,Ring
204,Spatial,4132,4,1,8,800,7.5,3.33333333333333,1,l,l,-1600,-400,-1600,-800,L,S,=,0.290184556235474,0.250232744156991,1.50064810507552,1.17329354210084,1.41417797114829,781520.235899716,781520.545175121,781520.545175121,781522.145117213,1.6,781523.665439885,781523.665439885,781526.065279898,2.4,781527.385887734,781527.834062356,0.448174621444196,78,Shorter,Middle,66,L,Index
204,Spatial,4132,4,1,9,1200,6.66666666666667,7.5,1,m,m,-800,800,-800,400,L,S,=,0.259459258942675,0.428370952945561,1.43424308483553,1.78325442446074,1.28974476153755,781529.402605681,781529.675493494,781529.675493494,781532.075319071,2.4,781533.535742263,781533.535742263,781535.135157278,1.6,781537.069272027,781537.682060664,0.612788637517951,78,Shorter,Middle,77,=,Ring
204,Spatial,4132,4,1,10,1600,7.5,20,2,r,r,0,1200,0,1600,L,S,=,0.454454826469194,0.413227762162491,1.72452545099085,1.24280465188523,1.69666850076754,781539.119348554,781539.585685016,781539.585685016,781541.185504562,1.6,781542.94565549,781542.94565549,781543.745426338,0.8,781545.136030892,781545.546049662,0.410018770140596,66,Longer,Index,78,S,Middle
204,Spatial,4132,4,1,11,1200,5,5,1,m,m,-800,0,-800,400,L,S,=,0.297924849305587,0.248672115543759,1.2145417393894,1.76968706442378,1.32789983847851,781547.402688127,781547.715792944,781547.715792944,781549.315597412,1.6,781550.565644525,781550.565644525,781552.96542968,2.4,781554.886033218,781555.234207166,0.348173947772011,66,Longer,Index,66,L,Index
204,Spatial,4132,4,1,12,1200,5,5,1,m,m,-800,800,-800,400,=,L,S,0.324330613625724,0.434318685197099,1.8457795393747,1.82015046289172,1.50079733890448,781556.71941419,781557.055975396,781557.055975396,781560.255780378,3.2,781562.126012215,781562.126012215,781564.52559687,2.4,781566.4860934,781566.954132393,0.468038992839865,77,Shorter,Ring,66,=,Index
204,Spatial,4132,4,1,13,1600,7.5,20,2,m,m,-800,400,-800,800,=,L,S,0.445317938626268,0.346228349187749,1.92788819724764,1.84303135352701,1.3267131378093,781568.619473506,781569.075890775,781569.075890775,781570.675759404,1.6,781572.625902019,781572.625902019,781573.425707835,0.8,781575.402800728,781575.898226896,0.495426167617552,78,Longer,Middle,77,S,Ring
204,Spatial,4132,4,1,14,1200,10,7.5,1,l,l,-1600,-800,-1600,-400,S,=,L,0.244258497420998,0.403257930033561,1.24475356226973,1.58184061135162,1.98727077721924,781577.369524594,781577.626028415,781577.626028415,781578.426027354,0.8,781579.696188422,781579.696188422,781581.295948619,1.6,781583.019486788,781583.610031666,0.590544878738001,77,Longer,Ring,77,L,Ring
204,Spatial,4132,4,1,15,800,5,5,1,r,r,0,1200,0,800,=,L,S,0.252248958095109,0.406465189400318,1.0230248766684,1.73429873443233,1.54397244319849,781585.736263345,781586.006157115,781586.006157115,781588.406079574,2.4,781589.456288627,781589.456288627,781591.056070639,1.6,781592.936228121,781593.474017135,0.537789014400914,77,Shorter,Ring,77,S,Ring
204,Spatial,4132,4,1,16,800,5,5,1,l,l,-1600,-1200,-1600,-800,L,S,=,0.489612680604601,0.323278109283283,1.86659047190002,1.8881067392061,1.51696997606785,781595.152948698,781595.656231268,781595.656231268,781596.455970677,0.8,781598.346366515,781598.346366515,781599.946021168,1.6,781601.986356249,781602.458012973,0.471656723297201,66,Longer,Index,66,L,Index
204,Spatial,4132,4,1,17,1600,20,20,2,r,r,0,1600,0,1600,L,S,=,0.290614524005575,0.2787275495038,1.94751167171045,1.40659780807825,1.16455356034026,781604.119658128,781604.426537464,781604.426537464,781605.226304783,0.8,781607.196114798,781607.196114798,781607.996213826,0.8,781609.552988927,781609.906019173,0.353030246216804,77,Equals to,Ring,77,=,Ring
204,Spatial,4132,4,1,18,800,5,5,1,m,m,-800,400,-800,0,S,=,L,0.201094345976824,0.459585471423883,1.32835762173033,1.83344287110934,1.96258661110344,781611.236399429,781611.456539174,781611.456539174,781613.856330745,2.4,781615.216708352,781615.216708352,781616.816480098,1.6,781618.802612546,781619.218038431,0.415425885235891,66,Shorter,Index,66,S,Index
204,Spatial,4132,4,1,19,400,5,5,2,l,l,-1600,-1200,-1600,-1200,L,S,=,0.221595382801106,0.212306695507626,1.15159944942844,1.11869776544929,1.13133806601921,781621.319755716,781621.556699927,781621.556699927,781622.356448961,0.8,781623.536643396,781623.536643396,781624.336601271,0.8,781625.60310968,781625.954113145,0.351003465359099,77,Equals to,Ring,77,=,Ring
204,Spatial,4132,4,1,20,400,1.66666666666667,1.25,2,l,l,-1600,-1200,-1600,-1200,=,L,S,0.282968418473036,0.297582192224341,1.88494295531559,1.45460741235771,1.94057605229596,781627.236464279,781627.536900358,781627.536900358,781629.936693534,2.4,781631.856857217,781631.856857217,781635.056713526,3.2,781636.653161871,781637.074137949,0.420976078137755,66,Equals to,Index,78,L,Middle
204,Spatial,4132,4,1,21,800,1.25,3.33333333333333,1,m,m,-800,-400,-800,0,=,L,S,0.263283952866461,0.266377174585916,1.90049605164439,1.91345936913261,1.61251583267497,781639.153179676,781639.426584622,781639.426584622,781642.626683137,3.2,781644.556975175,781644.556975175,781646.956896993,2.4,781649.019905485,781650.97003005,1.95012456481345,78,Longer,Middle,78,L,Middle
204,Spatial,4132,4,1,22,1200,6.66666666666667,7.5,1,r,r,0,1600,0,1200,L,S,=,0.226698236746679,0.272588905541339,1.12209849678473,1.03386362356943,1.28375222657086,781652.736592809,781652.97705365,781652.97705365,781655.376964239,2.4,781656.526997526,781656.526997526,781658.126805843,1.6,781659.303269388,781659.705997936,0.402728548040614,78,Shorter,Middle,78,S,Middle
204,Spatial,4132,4,1,23,1600,6.66666666666667,5,2,m,m,-800,800,-800,800,L,S,=,0.468455676949643,0.25564973441544,1.59847775614664,1.84050675174097,1.36654020267917,781661.13621824,781661.617388259,781661.617388259,781664.016964573,2.4,781665.647265819,781665.647265819,781668.847283492,3.2,781670.836697665,781671.241888445,0.405190780409612,77,Equals to,Ring,66,L,Index
204,Spatial,4132,4,1,24,1200,20,7.5,1,l,l,-1600,0,-1600,-400,S,=,L,0.306403208635514,0.258943533211958,1.43557709149135,1.77987305951469,1.01379454778228,781672.770014587,781673.087499311,781673.087499311,781673.887335282,0.8,781675.35763853,781675.35763853,781676.957091078,1.6,781678.886681237,781679.745986207,0.859304969897494,66,Shorter,Index,78,=,Middle
204,Spatial,4132,4,1,25,1200,10,5,1,m,m,-800,800,-800,400,=,L,S,0.270959312277256,0.20782350451184,1.57956628592679,1.97174791632411,1.07775164695228,781686.303423373,781686.587549837,781686.587549837,781688.187327358,1.6,781689.797460112,781689.797460112,781692.197317449,2.4,781694.320100899,781694.810134066,0.490033167647198,77,Shorter,Ring,66,=,Index
204,Spatial,4132,4,1,26,1600,5,5,2,l,l,-1600,-400,-1600,0,L,S,=,0.310427223614143,0.250239838100768,1.96575807247188,1.24325498522714,1.99772612323482,781696.053476064,781696.377821457,781696.377821457,781698.777627144,2.4,781700.767881219,781700.767881219,781703.96774587,3.2,781705.370166839,781705.745972413,0.375805573537946,66,Longer,Index,66,L,Index
204,Spatial,4132,4,1,27,800,3.75,3.33333333333333,1,m,m,-800,400,-800,0,=,L,S,0.444229072970185,0.304922518454914,1.95905220574893,1.94413844995578,1.99275323557991,781707.90354162,781708.368008128,781708.368008128,781711.56784102,3.2,781713.557819526,781713.557819526,781715.957641253,2.4,781718.053613514,781718.514144635,0.46053112053778,77,Shorter,Ring,77,S,Ring
204,Spatial,4132,4,1,28,1600,5,5,2,l,l,-1600,0,-1600,0,S,=,L,0.33088651493551,0.303094114805918,1.81361872714868,1.57629255894047,1.58182264733855,781720.670283708,781721.018183334,781721.018183334,781724.217941158,3.2,781726.068164584,781726.068164584,781729.267994587,3.2,781730.986968708,781731.457921544,0.470952836098149,78,Equals to,Middle,78,=,Middle
204,Spatial,4132,4,1,29,800,15,5,1,l,l,-1600,-400,-1600,-800,L,S,=,0.36087878004166,0.252554874524646,1.72830687258582,1.93962986464253,1.14814375324983,781733.203675491,781733.578126283,781733.578126283,781734.377986956,0.8,781736.128396093,781736.128396093,781737.728168481,1.6,781739.803727929,781740.314140079,0.510412150528282,78,Shorter,Middle,66,L,Index
204,Spatial,4132,4,1,30,1200,2.5,5,1,l,l,-1600,-800,-1600,-400,=,L,S,0.231715108786755,0.246852552887884,1.860984226121,1.89309779230648,1.17467913267817,781741.620399341,781741.868263647,781741.868263647,781745.068135035,3.2,781746.958085599,781746.958085599,781749.358141832,2.4,781751.403751264,781751.849952634,0.44620136928279,78,Longer,Middle,66,=,Index
204,Spatial,4132,4,1,31,1200,10,7.5,1,r,r,0,800,0,1200,L,S,=,0.214253665721007,0.421987489606211,1.21919083445595,1.89311268430102,1.98667393682256,781753.170485331,781753.398382931,781753.398382931,781754.198457257,0.8,781755.458458852,781755.458458852,781757.058273586,1.6,781759.10382181,781759.505709792,0.401887981570326,66,Longer,Index,66,L,Index
204,Spatial,4132,4,1,32,400,5,5,2,r,r,0,400,0,400,=,L,S,0.223394564642495,0.455416132415933,1.15144596728208,1.40322944101111,1.35245712022689,781761.653834272,781761.888718615,781761.888718615,781762.688507107,0.8,781763.868739396,781763.868739396,781764.668588199,0.8,781766.220474922,781767.002060831,0.781585909542628,66,Equals to,Index,66,=,Index
204,Spatial,4132,4,1,33,800,7.5,3.33333333333333,1,l,l,-1600,-400,-1600,-800,L,S,=,0.365920698078681,0.210578395511386,1.14065601466493,1.59911742141787,1.40018493338352,781768.503889883,781768.888677231,781768.888677231,781770.488448657,1.6,781771.658655568,781771.658655568,781774.058470237,2.4,781775.803919319,781776.209854135,0.405934815993533,78,Shorter,Middle,66,L,Index
204,Spatial,4132,4,1,34,400,1.25,1.25,2,r,r,0,400,0,400,S,=,L,0.345148574729183,0.454909606333893,1.15437845145699,1.51927369670649,1.18959983845125,781777.770597805,781778.129013637,781778.129013637,781781.328554598,3.2,781782.508988993,781782.508988993,781785.708781784,3.2,781787.370604092,781787.769936632,0.399332539644092,78,Equals to,Middle,78,=,Middle
204,Spatial,4132,4,1,35,1200,2.5,5,1,l,l,-1600,-800,-1600,-400,=,L,S,0.326224730221392,0.351941284369546,1.4124790181977,1.26415556240973,1.6262723620272,781789.103994015,781789.448986536,781789.448986536,781792.648815256,3.2,781794.099089882,781794.099089882,781796.498873755,2.4,781797.920642284,781798.35386786,0.433225576067343,78,Longer,Middle,66,=,Index
204,Spatial,4132,4,1,36,400,10,5,2,l,l,-1600,-800,-1600,-1200,=,L,S,0.341503184141771,0.342000299889562,1.68485942571883,1.04606461127936,1.74231109884953,781800.137368315,781800.49903772,781800.49903772,781801.298857971,0.8,781803.019299083,781803.019299083,781803.819058062,0.8,781805.020693003,781805.434085325,0.413392322370782,77,Shorter,Ring,66,=,Index
204,Spatial,4132,4,1,37,400,10,5,2,r,r,0,800,0,400,L,S,=,0.323269342832981,0.357484126860608,1.31811083629755,1.30588773833836,1.62203783303597,781807.320739615,781807.659181362,781807.659181362,781808.458961192,0.8,781809.79904744,781809.79904744,781810.599088403,0.8,781812.05411002,781812.481961472,0.427851452725008,78,Shorter,Middle,77,=,Ring
204,Spatial,4132,4,1,38,1200,3.33333333333333,7.5,1,l,l,-1600,-800,-1600,-400,S,=,L,0.353752786164036,0.23926021947864,1.58128053987235,1.05123384839808,1.74201483434728,781814.254111958,781814.619264629,781814.619264629,781817.019300652,2.4,781818.629371812,781818.629371812,781820.229231137,1.6,781821.420782635,781822.161924734,0.741142099490389,77,Longer,Ring,66,S,Index
204,Spatial,4132,4,1,39,800,3.75,3.33333333333333,1,l,l,-1600,-400,-1600,-800,L,S,=,0.391193908939743,0.441488213953027,1.94610601291821,1.72729124217243,1.46174023311795,781824.05414237,781824.459429598,781824.459429598,781827.659383111,3.2,781829.629405496,781829.629405496,781832.02924583,2.4,781833.904224577,781834.801689599,0.897465021931566,78,Shorter,Middle,77,=,Ring
204,Spatial,4132,4,1,40,800,2.5,3.33333333333333,1,r,r,0,400,0,800,S,=,L,0.365260551262972,0.218828515733681,1.29175723096775,1.22479637468716,1.68249836035773,781836.420892349,781836.799731389,781836.799731389,781838.39956505,1.6,781839.729768997,781839.729768997,781842.129583025,2.4,781843.487558823,781843.961818485,0.474259661510587,77,Longer,Ring,77,L,Ring
204,Spatial,4132,4,1,41,400,3.33333333333333,1.25,2,r,r,0,800,0,400,S,=,L,0.399985018835308,0.385298936025135,1.04477682651542,1.28115530281302,1.47274385635008,781845.820954071,781846.23973198,781846.23973198,781848.639516815,2.4,781849.709742621,781849.709742621,781852.909553697,3.2,781854.337663486,781855.265878007,0.92821452091448,66,Shorter,Index,77,L,Ring
204,Spatial,4132,4,1,42,1600,20,20,2,m,m,-800,800,-800,800,L,S,=,0.258894926935179,0.391634440520768,1.942736594818,1.59216105904418,1.2702101169554,781856.887688555,781857.159937973,781857.159937973,781857.959725182,0.8,781859.929978224,781859.929978224,781860.729747147,0.8,781862.454317335,781862.913667089,0.459349753917195,77,Equals to,Ring,77,=,Ring
204,Spatial,4132,4,1,43,1200,3.33333333333333,7.5,1,r,r,0,800,0,1200,S,=,L,0.442285799633123,0.216609054050846,1.16754377272298,1.57297944495363,1.8895284819939,781864.337726073,781864.799904943,781864.799904943,781867.199729558,2.4,781868.400137717,781868.400137717,781869.999973945,1.6,781871.721040014,781872.321878462,0.600838447688147,77,Longer,Ring,66,S,Index
204,Spatial,4132,4,1,44,1200,5,5,1,m,m,-800,800,-800,400,L,S,=,0.333722922005983,0.350977869284664,1.72791723927624,1.14234985236748,1.29963526569292,781874.371114488,781874.720308871,781874.720308871,781877.920149141,3.2,781879.680299748,781879.680299748,781882.080146818,2.4,781883.354426055,781883.681860484,0.327434428967536,78,Shorter,Middle,77,=,Ring
204,Spatial,4132,4,1,45,400,1.25,1.25,2,r,r,0,400,0,400,L,S,=,0.304728623038645,0.430803398128186,1.56632661788652,1.93721436624533,1.94522367496748,781885.137835082,781885.460363132,781885.460363132,781888.660134108,3.2,781890.250203914,781890.250203914,781893.450084605,3.2,781895.537877142,781896.433902789,0.896025647060014,77,Equals to,Ring,77,=,Ring
204,Spatial,4132,4,1,46,800,5,5,1,l,l,-1600,-400,-1600,-800,S,=,L,0.261605996848178,0.467699641810092,1.46186387980802,1.01488759274352,1.90725807446351,781898.537885897,781898.810402221,781898.810402221,781901.210274635,2.4,781902.700341522,781902.700341522,781904.300424447,1.6,781905.471214931,781905.921893411,0.450678479857743,66,Shorter,Index,66,S,Index
204,Spatial,4132,4,1,47,800,2.5,3.33333333333333,1,r,r,0,400,0,800,=,L,S,0.212132523916656,0.493922878002199,1.6792338178601,1.93772073712418,1.99590031949441,781907.987955495,781908.210676635,781908.210676635,781909.810557133,1.6,781911.520714621,781911.520714621,781913.920522233,2.4,781916.004648886,781916.417846014,0.413197128335014,78,Longer,Middle,78,L,Middle
204,Spatial,4132,4,1,48,1600,6.66666666666667,5,2,l,l,-1600,0,-1600,0,S,=,L,0.328572243817099,0.373518752134168,1.62104522138173,1.9434867698453,1.97570764224136,781918.588001241,781918.930936138,781918.930936138,781921.330442517,2.4,781922.990833052,781922.990833052,781926.190744539,3.2,781928.28801141,781929.049837851,0.761826440459117,78,Equals to,Middle,77,L,Ring
204,Spatial,4132,4,1,49,1200,10,5,1,r,r,0,1600,0,1200,S,=,L,0.472650505579743,0.411469896715753,1.31039592745388,1.20386088417836,1.71701411602109,781940.004795667,781940.491178716,781940.491178716,781942.090989921,1.6,781943.431201281,781943.431201281,781945.831045464,2.4,781947.18810826,781947.546080459,0.357972198631614,66,Shorter,Index,77,L,Ring
204,Spatial,4132,4,1,50,1200,3.33333333333333,7.5,1,m,m,-800,0,-800,400,L,S,=,0.345264937529339,0.354577274972224,1.78292414742659,1.3291315647259,1.06430592858006,781949.421503156,781949.781254165,781949.781254165,781952.181099311,2.4,781954.001249167,781954.001249167,781955.601052352,1.6,781957.088161802,781957.546029452,0.457867649383843,66,Longer,Index,66,L,Index
204,Spatial,4132,4,1,51,1200,2.5,5,1,l,l,-1600,-800,-1600,-400,S,=,L,0.460604527942409,0.416712268087134,1.71355839026946,1.56417578169561,1.27311829639303,781958.771557965,781959.25129047,781959.25129047,781962.451246549,3.2,781964.201451337,781964.201451337,781966.601282046,2.4,781968.321545149,781968.761612786,0.440067637944594,77,Longer,Ring,78,=,Middle
204,Spatial,4132,4,1,52,1600,15,20,2,m,m,-800,400,-800,800,=,L,S,0.437749680044526,0.329980600689903,1.08592338102419,1.93384079768372,1.86774144889101,781970.171613271,781970.621248468,781970.621248468,781971.421159185,0.8,781972.541439063,781972.541439063,781973.341338231,0.8,781975.421590414,781975.833798977,0.412208563531749,78,Longer,Middle,66,=,Index
204,Spatial,4132,4,1,53,800,2.5,3.33333333333333,1,m,m,-800,-400,-800,0,S,=,L,0.432187954139626,0.47758502075015,1.68096515331324,1.12249291665393,1.0094029596337,781977.854976391,781978.301541193,781978.301541193,781979.901350473,1.6,781981.621711385,781981.621711385,781984.021323308,2.4,781985.288353709,781986.593857799,1.30550409085117,77,Longer,Ring,77,L,Ring
204,Spatial,4132,4,1,54,1600,10,20,2,r,r,0,1600,0,1600,=,L,S,0.314155815468689,0.215682924996491,1.74452330071581,1.43570565807485,1.78262684658889,781987.73837358,781988.071891659,781988.071891659,781989.671367306,1.6,781991.45182499,781991.45182499,781992.251694645,0.8,781993.838353401,781994.281595373,0.443241972243413,66,Equals to,Index,77,S,Ring
204,Spatial,4132,4,1,55,1200,5,5,1,m,m,-800,0,-800,400,=,L,S,0.455324006058636,0.497366944515797,1.38712096532878,1.27735864024311,1.71909810530239,781996.221717387,781996.691885507,781996.691885507,781998.291709223,1.6,781999.711730951,781999.711730951,782002.11174548,2.4,782003.538455386,782003.91375531,0.375299924053252,78,Longer,Middle,66,=,Index
204,Spatial,4132,4,1,56,1600,5,5,2,r,r,0,1600,0,1600,=,L,S,0.25110150151685,0.291800943405182,1.54546949551524,1.43465547234493,1.60799110835621,782005.788452994,782006.052010927,782006.052010927,782009.251819758,3.2,782010.831860016,782010.831860016,782014.031842079,3.2,782015.62182755,782016.025826153,0.403998602647334,66,Equals to,Index,66,=,Index
204,Spatial,4132,4,1,57,800,5,5,1,l,l,-1600,-1200,-1600,-800,L,S,=,0.274254182955185,0.276722976539695,1.3691257591383,1.58793893559329,1.86863861008558,782017.788551432,782018.082238802,782018.082238802,782018.881775465,0.8,782020.292116035,782020.292116035,782021.891932372,1.6,782023.621777185,782024.353817815,0.732040630187839,66,Longer,Index,66,L,Index
204,Spatial,4132,4,1,58,1200,10,5,1,r,r,0,1600,0,1200,=,L,S,0.486777485182663,0.325251547966814,1.67475121817793,1.15292816222635,1.03219847591854,782026.388579903,782026.892152157,782026.892152157,782028.491968816,1.6,782030.192281857,782030.192281857,782032.59201761,2.4,782033.888561136,782034.393720753,0.505159616586752,77,Shorter,Ring,78,L,Middle
204,Spatial,4132,4,1,59,400,1.66666666666667,1.25,2,r,r,0,400,0,400,=,L,S,0.331893798352046,0.355991677672656,1.88311939565936,1.50000959566519,1.20729790032236,782035.571933239,782035.922495521,782035.922495521,782038.322008958,2.4,782040.232247352,782040.232247352,782043.432170388,3.2,782045.088663362,782045.553893909,0.465230546775274,66,Equals to,Index,66,=,Index
204,Spatial,4132,4,1,60,1200,5,5,1,l,l,-1600,-800,-1600,-400,L,S,=,0.352258017821745,0.410632152301108,1.39436257639359,1.70541286649997,1.36464931288892,782046.905330412,782047.272544235,782047.272544235,782048.872367951,1.6,782050.302435268,782050.302435268,782052.702239351,2.4,782054.55533078,782055.122022438,0.566691657179035,66,Longer,Index,66,L,Index
204,Spatial,4132,4,1,61,1600,10,20,2,l,l,-1600,0,-1600,0,L,S,=,0.434909145633715,0.460573177152415,1.46414918722775,1.71019449358613,1.11762518128326,782056.638716805,782057.092392181,782057.092392181,782058.692400358,1.6,782060.1828012,782060.1828012,782060.982349091,0.8,782062.855378997,782063.545795908,0.690416910802014,77,Equals to,Ring,78,S,Middle
204,Spatial,4132,4,1,62,800,2.5,3.33333333333333,1,l,l,-1600,-1200,-1600,-800,=,L,S,0.376454392010356,0.39382509716613,1.08017073100246,1.23238111835024,1.78212168746851,782064.805413467,782065.192721356,782065.192721356,782066.792552771,1.6,782067.902734448,782067.902734448,782070.302560666,2.4,782071.688789162,782072.177793198,0.489004035363905,78,Longer,Middle,78,L,Middle
204,Spatial,4132,4,1,63,1200,10,5,1,r,r,0,1600,0,1200,S,=,L,0.379075108403564,0.387751274817532,1.77996227996369,1.8797706358594,1.24461038140464,782074.10545206,782074.502995452,782074.502995452,782076.102530446,1.6,782077.913007806,782077.913007806,782080.312882466,2.4,782082.338867183,782082.793930686,0.455063502653502,66,Shorter,Index,77,L,Ring
204,Spatial,4132,4,1,64,800,1.25,3.33333333333333,1,m,m,-800,-400,-800,0,=,L,S,0.253985277879938,0.497588494661688,1.90993855258631,1.09815570613093,1.69091011752197,782084.188859258,782084.462900033,782084.462900033,782087.662943049,3.2,782089.592975238,782089.592975238,782091.992857597,2.4,782093.238868416,782093.745828373,0.506959956488572,78,Longer,Middle,66,=,Index
204,Spatial,4132,4,1,65,800,1.66666666666667,5,1,m,m,-800,-400,-800,0,=,L,S,0.213506084123379,0.274324897909533,1.27136410014376,1.27604161425047,1.73197903794243,782095.572270722,782095.80286819,782095.80286819,782098.20295522,2.4,782099.513151718,782099.513151718,782101.112960998,1.6,782102.522307537,782103.137767392,0.61545985576231,78,Longer,Middle,77,S,Ring
204,Spatial,4132,4,1,66,800,5,5,1,l,l,-1600,-400,-1600,-800,L,S,=,0.406877991603249,0.497368507732611,1.14283771580683,1.21666228177619,1.09468391463191,782105.022293483,782105.443249636,782105.443249636,782107.843091253,2.4,782109.0135208,782109.0135208,782110.612994842,1.6,782111.972327953,782112.433667641,0.461339687695727,78,Shorter,Middle,77,=,Ring
204,Spatial,4132,4,1,67,1200,10,7.5,1,r,r,0,800,0,1200,S,=,L,0.247309063582917,0.225058314818065,1.01625702436327,1.69837886589701,1.70021263137608,782113.672376619,782113.933303014,782113.933303014,782114.733156309,0.8,782115.783505873,782115.783505873,782117.383344026,1.6,782119.23905458,782119.673736177,0.434681596932933,77,Longer,Ring,77,L,Ring
204,Spatial,4132,4,1,68,800,7.5,3.33333333333333,1,l,l,-1600,-400,-1600,-800,=,L,S,0.445841238630509,0.413756024481048,1.39854834026739,1.78826221034302,1.65962092457163,782121.522405603,782121.983477386,782121.983477386,782123.583345373,1.6,782125.023451222,782125.023451222,782127.423510663,2.4,782129.355749683,782129.921724669,0.565974985831417,77,Shorter,Ring,78,L,Middle
204,Spatial,4132,4,1,69,800,3.75,3.33333333333333,1,m,m,-800,400,-800,0,=,L,S,0.458794156226702,0.377056617749374,1.26069799610914,1.5536243706516,1.48622390916205,782131.739106291,782132.213704042,782132.213704042,782135.413693806,3.2,782136.693617516,782136.693617516,782139.093520727,2.4,782140.789151059,782141.497841485,0.708690425846726,77,Shorter,Ring,77,S,Ring
204,Spatial,4132,4,1,70,400,5,5,2,m,m,-800,0,-800,-400,S,=,L,0.463903096381303,0.474682256572831,1.34597402864258,1.7407629121726,1.96372163782502,782143.139160314,782143.613702246,782143.613702246,782145.213559325,1.6,782146.583795814,782146.583795814,782147.383735083,0.8,782149.272487167,782149.841711234,0.569224066915922,66,Shorter,Index,66,S,Index
204,Spatial,4132,4,1,71,1600,3.75,5,2,m,m,-800,400,-800,800,=,L,S,0.336751638409638,0.44341295956628,1.9616717190548,1.95666477293057,1.38315780454579,782151.955872743,782152.303815678,782152.303815678,782155.503677762,3.2,782157.503912945,782157.503912945,782160.703798448,3.2,782162.805951823,782163.305767472,0.499815648654476,78,Longer,Middle,66,=,Index
204,Spatial,4132,4,1,72,800,15,5,1,r,r,0,1200,0,800,S,=,L,0.362353361752067,0.470022306153858,1.06107261533918,1.21035891447825,1.17394899174087,782164.839269932,782165.214232403,782165.214232403,782166.013752705,0.8,782167.093889363,782167.093889363,782168.693875726,1.6,782170.055935973,782170.489753108,0.433817134588026,66,Shorter,Index,77,L,Ring
204,Spatial,4132,4,1,73,400,3.33333333333333,1.25,2,l,l,-1600,-800,-1600,-1200,L,S,=,0.362146052469647,0.317452541171469,1.71192118625873,1.98117325432486,1.96676688428169,782180.072683113,782180.454279125,782180.454279125,782182.854220511,2.4,782184.604310451,782184.604310451,782187.804184084,3.2,782189.939400851,782190.377573512,0.438172661233693,78,Shorter,Middle,66,L,Index
204,Spatial,4132,4,1,74,800,15,5,1,m,m,-800,400,-800,0,S,=,L,0.46665930336242,0.369802439172832,1.38510022100945,1.34420587718287,1.81802943990897,782192.489456366,782192.974565832,782192.974565832,782193.774353361,0.8,782195.194658036,782195.194658036,782196.794466996,1.6,782198.289415239,782198.737660758,0.448245518724434,66,Shorter,Index,78,=,Middle
204,Spatial,4132,4,1,75,800,7.5,3.33333333333333,1,m,m,-800,400,-800,0,L,S,=,0.486358194946252,0.266817701914827,1.31349786427352,1.63038573458736,1.57320033948369,782200.70616764,782201.204715175,782201.204715175,782202.804455482,1.6,782204.154446808,782204.154446808,782206.554435031,2.4,782208.339518812,782209.329641546,0.990122733172029,78,Shorter,Middle,78,S,Middle
204,Spatial,4132,4,1,76,800,1.66666666666667,5,1,l,l,-1600,-1200,-1600,-800,S,=,L,0.214982841761603,0.307114708420958,1.77103348054627,1.74252775883715,1.5543785120027,782211.039518938,782211.274577156,782211.274577156,782213.674623765,2.4,782215.474736017,782215.474736017,782217.074580585,1.6,782218.956199961,782219.49763136,0.541431398596615,77,Longer,Ring,66,S,Index
204,Spatial,4132,4,1,77,1200,5,5,1,l,l,-1600,-800,-1600,-400,S,=,L,0.464756569985519,0.487294183496885,1.37173218123713,1.43849822517275,1.94957637973714,782221.206268532,782221.684952016,782221.684952016,782223.28474301,1.6,782224.694902327,782224.694902327,782227.094710901,2.4,782228.672905621,782229.097841356,0.424935735412873,77,Longer,Ring,77,L,Ring
204,Spatial,4132,4,1,78,1200,20,7.5,1,m,m,-800,800,-800,400,S,=,L,0.47361667202568,0.251744280045076,1.33704717075206,1.99537666698985,1.92553799012677,782231.206284252,782231.695143249,782231.695143249,782232.494667401,0.8,782233.85514638,782233.85514638,782235.454988382,1.6,782237.606298174,782238.105738536,0.499440361279994,66,Shorter,Index,78,=,Middle
204,Spatial,4132,4,1,79,1600,5,5,2,m,m,-800,400,-800,800,L,S,=,0.207944076806211,0.332381475309816,1.37408297426875,1.58631762814898,1.14593262529752,782240.189701314,782240.415049229,782240.415049229,782242.814849141,2.4,782244.215248382,782244.215248382,782247.415065875,3.2,782249.139744191,782249.825691352,0.685947160935029,66,Longer,Index,66,L,Index
204,Spatial,4132,4,1,80,1600,3.75,5,2,l,l,-1600,-400,-1600,0,L,S,=,0.300032623640112,0.225175689846533,1.87113480878265,1.73368430818838,1.29353136950909,782251.123074026,782251.435220607,782251.435220607,782254.635098411,3.2,782256.545410589,782256.545410589,782259.745369556,3.2,782261.62308381,782262.081709515,0.458625704166479,66,Longer,Index,66,L,Index
204,Spatial,4132,4,1,81,800,1.25,3.33333333333333,1,m,m,-800,-400,-800,0,=,L,S,0.220099622151985,0.301311983663276,1.48807871765479,1.57440320811191,1.70676103844057,782263.53979563,782263.775353336,782263.775353336,782266.975257124,3.2,782268.495479385,782268.495479385,782270.895374576,2.4,782272.606521455,782273.153480588,0.546959132538177,78,Longer,Middle,78,L,Middle
204,Spatial,4132,4,1,82,800,1.25,3.33333333333333,1,m,m,-800,-400,-800,0,S,=,L,0.284056221681786,0.205981383506974,1.83087955188052,1.10384587408421,1.58131618508813,782275.006551095,782275.305770003,782275.305770003,782278.50558525,3.2,782280.365726586,782280.365726586,782282.765532273,2.4,782284.006537621,782284.817532719,0.810995098436251,77,Longer,Ring,77,L,Ring
204,Spatial,4132,4,1,83,800,5,5,1,l,l,-1600,-1200,-1600,-800,S,=,L,0.439552407940018,0.2855094897201,1.22068065540656,1.39060206829939,1.17341786157224,782286.556570359,782287.015919436,782287.015919436,782287.815695417,0.8,782289.055921823,782289.055921823,782290.655756125,1.6,782292.189965016,782292.649742765,0.459777748794295,77,Longer,Ring,77,L,Ring
204,Spatial,4132,4,1,84,1200,6.66666666666667,7.5,1,r,r,0,1600,0,1200,=,L,S,0.35322246873509,0.233868425877656,1.36675265073652,1.50163659810943,1.02818424243299,782293.973310185,782294.345875046,782294.345875046,782296.745623631,2.4,782298.135930766,782298.135930766,782299.735764748,1.6,782301.389978279,782302.777638764,1.38766048511025,77,Shorter,Ring,66,=,Index
204,Spatial,4132,4,1,85,1200,20,7.5,1,l,l,-1600,0,-1600,-400,=,L,S,0.438014771590607,0.372739933517138,1.88973133987465,1.45213800141444,1.93047360709311,782303.940035397,782304.395895754,782304.395895754,782305.1956897,0.8,782307.115934546,782307.115934546,782308.715713991,1.6,782310.306727826,782310.753494575,0.446766748325899,77,Shorter,Ring,77,S,Ring
204,Spatial,4132,4,1,86,800,1.66666666666667,5,1,m,m,-800,-400,-800,0,S,=,L,0.267177564433915,0.43689707414787,1.5577375559934,1.86901173801328,1.07672515718948,782312.840058463,782313.126108776,782313.126108776,782315.525859927,2.4,782317.116430826,782317.116430826,782318.715842633,1.6,782320.740063564,782321.161664564,0.42160100012552,77,Longer,Ring,78,=,Middle
204,Spatial,4132,4,1,87,400,2.5,1.25,2,r,r,0,800,0,400,L,S,=,0.464427612545581,0.453292243233806,1.88507082281413,1.26713143581091,1.35694483205411,782322.390107241,782322.866362255,782322.866362255,782326.06610885,3.2,782327.976228227,782327.976228227,782331.176147093,3.2,782332.590138423,782332.993669938,0.403531515039504,78,Shorter,Middle,66,L,Index
204,Spatial,4132,4,1,88,1600,15,20,2,r,r,0,1200,0,1600,S,=,L,0.379269890058301,0.224322232528767,1.79577578287574,1.86624623206922,1.50879379139118,782334.490196777,782334.886412691,782334.886412691,782335.686249945,0.8,782337.516640438,782337.516640438,782338.316328198,0.8,782340.340169942,782340.721454811,0.381284869159572,77,Longer,Ring,78,=,Middle
204,Spatial,4132,4,1,89,800,5,5,1,m,m,-800,-400,-800,0,=,L,S,0.383411608840903,0.372102572691649,1.98562456444408,1.26110249071648,1.04050564599892,782342.373574397,782342.776734388,782342.776734388,782343.576224534,0.8,782345.586615342,782345.586615342,782347.186455419,1.6,782348.606926001,782349.401663807,0.794737805379555,78,Longer,Middle,78,L,Middle
204,Spatial,4132,4,1,90,1200,10,7.5,1,r,r,0,800,0,1200,S,=,L,0.34912294283288,0.436801569054157,1.13930219128463,1.92862561927756,1.39469461400341,782350.590294605,782350.956572056,782350.956572056,782351.756370172,0.8,782352.926767318,782352.926767318,782354.526552217,1.6,782356.606950365,782356.993656785,0.386706420453265,77,Longer,Ring,77,L,Ring
204,Spatial,4132,4,1,91,800,3.75,3.33333333333333,1,r,r,0,1200,0,800,L,S,=,0.419850947066249,0.43544623900911,1.5770786204124,1.00882774676549,1.59395977821076,782358.54029993,782358.97666548,782358.97666548,782362.176478802,3.2,782363.786858894,782363.786858894,782366.186684792,2.4,782367.340357388,782368.129546845,0.789189456496388,78,Shorter,Middle,77,=,Ring
204,Spatial,4132,4,1,92,800,1.66666666666667,5,1,r,r,0,400,0,800,S,=,L,0.48231796488318,0.227850788929458,1.33726606946012,1.38832992777805,1.17522460835818,782369.857067056,782370.356781347,782370.356781347,782372.756651515,2.4,782374.127027553,782374.127027553,782375.726798978,1.6,782377.257057881,782378.305651983,1.0485941019142,77,Longer,Ring,66,S,Index
204,Spatial,4132,4,1,93,400,2.5,5,2,r,r,0,400,0,400,S,=,L,0.294137648350381,0.496480179626179,1.33572008666562,1.97722140190034,1.49920381275538,782379.623760382,782379.936948286,782379.936948286,782381.536785476,1.6,782382.907133924,782382.907133924,782383.706845103,0.8,782385.840454206,782386.473553577,0.6330993702868,78,Equals to,Middle,66,S,Index
204,Spatial,4132,4,1,94,1200,6.66666666666667,7.5,1,r,r,0,1600,0,1200,S,=,L,0.210628795938024,0.460121767730229,1.35507740631772,1.34297713021445,1.67395476347105,782388.123796472,782388.347227547,782388.347227547,782390.746988001,2.4,782392.127097488,782392.127097488,782393.726965795,1.6,782395.207172231,782395.793832199,0.586659968248568,66,Shorter,Index,66,S,Index
204,Spatial,4132,4,1,95,400,2.5,1.25,2,r,r,0,800,0,400,L,S,=,0.31954881911771,0.202533485225358,1.79040963159234,1.12459886082137,1.74129013134921,782397.623837053,782397.957421218,782397.957421218,782401.157225237,3.2,782402.977491865,782402.977491865,782406.177292676,3.2,782407.440525101,782408.329825686,0.889300584676676,78,Shorter,Middle,66,L,Index
204,Spatial,4132,4,1,96,800,15,5,1,m,m,-800,400,-800,0,=,L,S,0.428602655866347,0.225230103251413,1.35354190439449,1.63555891593905,1.64574000498877,782410.207289597,782410.647537217,782410.647537217,782411.44738987,0.8,782412.827370394,782412.827370394,782414.427206942,1.6,782416.207297569,782417.577693557,1.37039598776028,77,Shorter,Ring,77,S,Ring
